sub,time,trial,stim1,stim2,decision,RT_decision,val1,RT_val1,conf1,RT_conf1,val2,RT_val2,conf2,RT_conf2,conf_decision,RT_conf_decision
82,1.67884E+12,1,-20,-50,1,6.867,,,,,,,,,,
82,1.67884E+12,2,-20,-80,2,8.129,,,,,,,,,,
82,1.67884E+12,3,-50,-80,2,2.079,,,,,,,,,,
82,1.67884E+12,4,-80,-20,1,4.347,14,2.741,5,1.537,14,3.023,6,2.365,6,2.37
82,1.67884E+12,5,-80,-50,2,0.877,13,6.96,6,5.604,13,2.103,7,1.593,6,1.584
82,1.67884E+12,6,-50,-20,2,1.044,14,1.594,6,1.209,12,1.292,6,1.122,7,2.049
82,1.67884E+12,7,50,20,1,3.625,,,,,,,,,,
82,1.67884E+12,8,80,20,2,4.848,,,,,,,,,,
82,1.67884E+12,9,80,50,2,0.986,,,,,,,,,,
82,1.67884E+12,10,50,80,2,1.588,14,9.291,6,2.135,18,5.48,5,1.548,8,3.563
82,1.67884E+12,11,20,50,2,1.243,12,1.94,2,2.435,15,2.839,5,1.103,6,2.1
82,1.67884E+12,12,20,80,2,0.801,12,1.621,5,1.552,14,1.99,4,2.086,7,2.427
82,1.67884E+12,13,50,-20,1,1.662,,,,,,,,,,
82,1.67884E+12,14,-80,80,2,1.108,,,,,,,,,,
82,1.67884E+12,15,-50,80,2,1.449,,,,,,,,,,
82,1.67884E+12,16,-80,20,2,1.563,,,,,,,,,,
82,1.67884E+12,17,20,-50,1,1.148,,,,,,,,,,
82,1.67884E+12,18,80,-20,1,2.007,,,,,,,,,,
82,1.67884E+12,19,20,-20,1,0.867,,,,,,,,,,
82,1.67884E+12,20,-80,50,2,0.894,,,,,,,,,,
82,1.67884E+12,21,-50,50,2,0.592,,,,,,,,,,
82,1.67884E+12,22,80,-80,1,1.297,16,3.57,7,1.801,14,4.674,5,1.411,6,1.501
82,1.67884E+12,23,-20,20,1,0.784,8,1.954,6,2.335,12,2.144,3,1.281,0,4.728
82,1.67884E+12,24,-20,80,1,0.746,5,2.93,6,1.234,6,1.755,4,2.108,4,1.21
82,1.67884E+12,25,-50,20,2,0.979,14,5.404,4,1.216,12,2.799,7,1.634,4,1.288
82,1.67884E+12,26,50,-80,1,2.086,16,2.935,5,1.428,13,1.367,4,3.732,5,1.504
82,1.67884E+12,27,50,-50,1,0.932,12,2.154,7,1.509,12,1.763,5,1.082,5,1.27
82,1.67884E+12,28,20,-80,1,1.144,12,2.246,5,1.023,7,2.738,7,2.164,7,1.148
82,1.67884E+12,29,-20,50,2,0.869,6,2.894,7,2.111,16,2.032,6,1.094,7,1.314
82,1.67884E+12,30,80,-50,1,1.26,13,3.09,5,1.301,8,2.998,7,5.254,5,1.504
84,1.67884E+12,1,-20,80,2,2.271,,,,,,,,,,
84,1.67884E+12,2,20,-80,1,4.28,,,,,,,,,,
84,1.67884E+12,3,-50,80,1,2.721,,,,,,,,,,
84,1.67884E+12,4,20,-20,1,2.235,,,,,,,,,,
84,1.67884E+12,5,-80,50,2,1.085,,,,,,,,,,
84,1.67884E+12,6,20,-50,1,2.88,,,,,,,,,,
84,1.67884E+12,7,-80,80,1,0.751,,,,,,,,,,
84,1.67884E+12,8,-20,50,2,0.77,,,,,,,,,,
84,1.67884E+12,9,50,-50,1,0.824,,,,,,,,,,
84,1.67884E+12,10,50,-80,1,1.01,12,3.09,5,3.66,10,3.479,4,1.216,4,5.121
84,1.67884E+12,11,-80,20,1,0.678,9,98.836,5,1.419,8,2.848,3,1.375,3,1.988
84,1.67884E+12,12,80,-50,2,0.884,11,2.649,3,2.01,13,2.112,2,1.611,6,1.769
84,1.67884E+12,13,-50,50,2,1.471,13,17.236,5,3.126,11,1.516,4,1.237,3,1.926
84,1.67884E+12,14,-50,20,1,2.075,13,2.349,3,1.457,14,21.252,3,1.697,3,2.643
84,1.67884E+12,15,-20,20,1,0.784,8,2.407,2,1.541,7,1.519,1,1.486,3,1.556
84,1.67884E+12,16,80,-20,1,0.695,7,1.933,3,1.697,7,4.75,4,5.103,3,1.565
84,1.67884E+12,17,80,-80,1,1.516,5,1.603,3,1.591,8,2.017,3,1.983,4,1.661
84,1.67884E+12,18,50,-20,1,0.886,11,1.865,4,1.508,6,1.631,4,0.969,7,2.248
84,1.67884E+12,19,50,80,1,0.724,,,,,,,,,,
84,1.67884E+12,20,20,80,2,1.706,,,,,,,,,,
84,1.67884E+12,21,50,20,1,1.135,,,,,,,,,,
84,1.67884E+12,22,20,50,2,1.156,9,1.716,3,1.347,12,1.409,2,1.247,6,1.48
84,1.67884E+12,23,80,50,2,0.659,9,2.629,2,1.371,12,2.602,4,1.527,6,1.913
84,1.67884E+12,24,80,20,2,1.696,5,2.794,3,1.428,5,1.945,2,1.258,3,1.448
84,1.67884E+12,25,-80,-20,2,1.778,,,,,,,,,,
84,1.67884E+12,26,-20,-50,2,1.64,,,,,,,,,,
84,1.67884E+12,27,-80,-50,2,0.951,,,,,,,,,,
84,1.67884E+12,28,-50,-20,1,1.492,8,1.565,4,1.794,6,1.591,3,1.405,2,1.546
84,1.67884E+12,29,-20,-80,1,0.652,7,2.33,5,1.275,8,1.109,5,1.563,2,1.403
84,1.67884E+12,30,-50,-80,1,1.4,10,2.938,4,1.229,7,2.242,2,1.117,6,3.387
85,1.67884E+12,1,50,80,2,4.831,,,,,,,,,,
85,1.67884E+12,2,80,20,1,1.513,,,,,,,,,,
85,1.67884E+12,3,50,20,1,2.757,,,,,,,,,,
85,1.67884E+12,4,80,50,1,1.65,18,3.533,5,2.48,16,3.42,5,1.509,8,5.965
85,1.67884E+12,5,20,80,2,1.305,12,3.99,3,2.389,18,3.808,5,2.392,6,6.378
85,1.67884E+12,6,20,50,2,1.213,12,3.264,3,2.813,16,3.423,6,2.737,7,2.868
85,1.67884E+12,7,-80,-50,2,2.528,,,,,,,,,,
85,1.67884E+12,8,-50,-20,2,6.065,,,,,,,,,,
85,1.67884E+12,9,-80,-20,2,0.942,,,,,,,,,,
85,1.67884E+12,10,-20,-50,1,2.592,8,5.422,4,2.546,6,2.63,4,1.545,5,2.432
85,1.67884E+12,11,-20,-80,1,1.178,8,2.607,4,2.83,2,3.639,6,4.693,5,3.104
85,1.67884E+12,12,-50,-80,1,1.313,6,3.978,6,3.206,2,8.099,8,3.013,7,2.755
85,1.67884E+12,13,80,-20,1,2.136,,,,,,,,,,
85,1.67884E+12,14,80,-50,1,2.113,,,,,,,,,,
85,1.67884E+12,15,-80,20,2,2.555,,,,,,,,,,
85,1.67884E+12,16,50,-50,1,2.008,,,,,,,,,,
85,1.67884E+12,17,-80,50,2,5.537,,,,,,,,,,
85,1.67884E+12,18,-20,20,2,3.095,,,,,,,,,,
85,1.67884E+12,19,-20,50,2,1.49,,,,,,,,,,
85,1.67884E+12,20,-80,80,2,1.83,,,,,,,,,,
85,1.67884E+12,21,20,-50,1,2.07,,,,,,,,,,
85,1.67884E+12,22,-50,20,2,1.456,7,4.89,6,1.311,12,2.238,5,1.649,6,2.912
85,1.67884E+12,23,50,-80,1,1.862,16,3.076,8,11.33,2,2.951,7,2.083,7,8.542
85,1.67884E+12,24,-50,50,2,5.619,8,3.45,7,2.503,16,3.795,7,2.272,7,4.1
85,1.67884E+12,25,80,-80,1,1.781,18,6.016,8,6.44,2,25.414,6,2.607,6,2.286
85,1.67884E+12,26,50,-20,1,1.41,16,4.906,4,8.91,7,3.422,3,3.19,7,2.958
85,1.67884E+12,27,-20,80,2,1.072,7,3.775,6,4,18,2.871,5,2.403,7,2.529
85,1.67884E+12,28,-50,80,2,0.98,7,2.95,1,3.187,18,3.865,8,2.614,9,2.494
85,1.67884E+12,29,20,-20,1,1.795,12,4.079,4,2.535,8,6.476,6,9.225,7,3.141
85,1.67884E+12,30,20,-80,1,2.002,12,2.246,7,14.99,2,3.214,6,2.84,6,2.839
86,1.67884E+12,1,50,80,2,1.625,,,,,,,,,,
86,1.67884E+12,2,80,20,1,3.614,,,,,,,,,,
86,1.67884E+12,3,50,20,1,1.75,,,,,,,,,,
86,1.67884E+12,4,20,80,2,1.184,12,2.638,4,1.311,18,3.628,4,2.137,9,3.238
86,1.67884E+12,5,80,50,1,1.231,18,3.379,3,2.53,15,4.921,2,1.659,9,2.105
86,1.67884E+12,6,20,50,2,1.784,12,3.185,3,1.33,15,2.503,3,3.091,10,2.087
86,1.67884E+12,7,-50,-80,1,8.387,,,,,,,,,,
86,1.67884E+12,8,-20,-80,1,1.455,,,,,,,,,,
86,1.67884E+12,9,-20,-50,1,2.05,,,,,,,,,,
86,1.67884E+12,10,-80,-20,2,1.428,3,3.829,3,1.425,8,2.346,3,1.178,10,3.73
86,1.67884E+12,11,-50,-20,2,0.997,5,3.069,2,2.145,8,1.856,3,1.119,9,2.784
86,1.67884E+12,12,-80,-50,2,1.793,2,2.518,3,2.485,5,3.068,2,2.311,9,2.048
86,1.67884E+12,13,20,-80,1,2.141,,,,,,,,,,
86,1.67884E+12,14,-50,20,2,2.309,,,,,,,,,,
86,1.67884E+12,15,50,-20,1,1.867,,,,,,,,,,
86,1.67884E+12,16,-50,80,2,1.657,,,,,,,,,,
86,1.67884E+12,17,80,-20,1,1.936,,,,,,,,,,
86,1.67884E+12,18,50,-80,1,1.625,,,,,,,,,,
86,1.67884E+12,19,20,-20,1,2.774,,,,,,,,,,
86,1.67884E+12,20,50,-50,1,2.04,,,,,,,,,,
86,1.67884E+12,21,80,-80,1,1.283,,,,,,,,,,
86,1.67884E+12,22,20,-50,1,1.679,12,2.346,3,2.563,5,3.123,3,2.604,10,1.445
86,1.67884E+12,23,-50,50,2,1.028,5,2.436,3,3.247,15,2.956,3,1.348,10,2.282
86,1.67884E+12,24,-20,50,2,1.098,8,2.281,3,1.773,14,2.484,3,1.314,10,1.62
86,1.67884E+12,25,-20,20,2,1.117,8,2.493,3,2.531,12,2.323,4,2.24,10,1.284
86,1.67884E+12,26,-80,50,2,1.397,3,2.365,2,2.501,14,2.547,3,1.536,10,3.043
86,1.67884E+12,27,80,-50,1,1.628,18,2.356,3,1.833,5,3.811,3,1.697,10,1.515
86,1.67884E+12,28,-20,80,2,1.119,8,2.78,3,4.879,17,2.156,3,4.144,10,1.593
86,1.67884E+12,29,-80,20,2,0.819,3,2.47,3,2.128,12,2.412,3,2.269,10,5.627
86,1.67884E+12,30,-80,80,2,1.135,2,1.973,2,1.799,18,2.38,3,1.073,10,1.693
87,1.67884E+12,1,-50,-20,2,2.22,,,,,,,,,,
87,1.67884E+12,2,-80,-50,2,1.918,,,,,,,,,,
87,1.67884E+12,3,-80,-20,2,1.624,,,,,,,,,,
87,1.67884E+12,4,-50,-80,1,1.566,5,4.517,8,1.668,0,2.317,9,2.336,6,3.9
87,1.67884E+12,5,-20,-80,1,0.751,8,3.029,8,1.169,1,2.278,8,1.577,8,2.264
87,1.67884E+12,6,-20,-50,1,0.538,9,2.319,7,1.227,6,2.294,8,1.139,7,5.725
87,1.67884E+12,7,-20,80,2,2.166,,,,,,,,,,
87,1.67884E+12,8,-50,80,2,1.024,,,,,,,,,,
87,1.67884E+12,9,20,-80,1,2.012,,,,,,,,,,
87,1.67884E+12,10,-20,50,2,1.361,,,,,,,,,,
87,1.67884E+12,11,50,-50,1,0.996,,,,,,,,,,
87,1.67884E+12,12,50,-80,1,1.168,,,,,,,,,,
87,1.67884E+12,13,-50,20,2,1.366,,,,,,,,,,
87,1.67884E+12,14,-20,20,2,1.165,,,,,,,,,,
87,1.67884E+12,15,80,-80,1,1.546,,,,,,,,,,
87,1.67884E+12,16,50,-20,1,0.991,15,2.893,7,1.016,8,2.256,8,1.804,9,4.68
87,1.67884E+12,17,20,-50,1,1.093,13,3.2,8,0.869,5,2.266,8,1.46,8,2.481
87,1.67884E+12,18,80,-50,1,0.85,20,2.161,10,1.65,4,2.114,7,1.048,8,2.6
87,1.67884E+12,19,-50,50,2,0.964,6,4.77,8,1.274,14,2.728,8,0.674,7,2.653
87,1.67884E+12,20,-80,50,2,0.909,1,3.14,9,0.721,14,2.241,9,1.196,7,3.042
87,1.67884E+12,21,-80,20,2,1.032,2,2.537,9,0.885,12,1.658,9,1.269,8,2.115
87,1.67884E+12,22,80,-20,1,1.986,19,2.17,9,0.911,9,2.501,8,1.558,8,1.81
87,1.67884E+12,23,-80,80,2,0.738,2,2.106,9,1.397,19,2.221,9,1.249,8,1.793
87,1.67884E+12,24,20,-20,1,1.07,13,2.374,8,1.309,8,1.579,7,1.406,7,2.107
87,1.67884E+12,25,20,80,2,1.498,,,,,,,,,,
87,1.67884E+12,26,20,50,2,1.367,,,,,,,,,,
87,1.67884E+12,27,80,50,1,1.391,,,,,,,,,,
87,1.67884E+12,28,50,20,1,1.084,13,2.115,8,1.028,11,1.553,9,1.275,7,2.558
87,1.67884E+12,29,50,80,2,0.605,15,2.796,9,1.972,19,2.019,10,0.901,9,1.361
87,1.67884E+12,30,80,20,1,0.898,19,1.769,9,1.253,12,1.995,9,1.243,9,1.331
88,1.67884E+12,1,80,20,1,2.228,,,,,,,,,,
88,1.67884E+12,2,80,50,1,1.944,,,,,,,,,,
88,1.67884E+12,3,50,20,1,2.186,,,,,,,,,,
88,1.67884E+12,4,50,80,2,1.358,14,3.679,8,1.35,17,3.813,8,1.047,8,2.13
88,1.67884E+12,5,20,50,2,1.334,14,2.77,7,1.351,15,3.422,8,2.318,7,1.16
88,1.67884E+12,6,20,80,2,0.679,14,3.862,7,1.813,18,1.902,9,1,9,1.803
88,1.67884E+12,7,-50,20,1,1.298,,,,,,,,,,
88,1.67884E+12,8,50,-20,1,2.863,,,,,,,,,,
88,1.67884E+12,9,50,-50,1,2.539,,,,,,,,,,
88,1.67884E+12,10,-80,80,2,1.862,,,,,,,,,,
88,1.67884E+12,11,-20,20,2,1.619,,,,,,,,,,
88,1.67884E+12,12,80,-20,1,1.387,,,,,,,,,,
88,1.67884E+12,13,-80,50,2,1.508,,,,,,,,,,
88,1.67884E+12,14,80,-50,1,1.935,,,,,,,,,,
88,1.67884E+12,15,20,-80,1,2.613,,,,,,,,,,
88,1.67884E+12,16,-50,80,2,3.566,14,2.732,8,1.52,18,3.526,9,1.742,9,7.679
88,1.67884E+12,17,-50,50,2,0.523,17,5.536,8,2.824,16,1.791,9,1.836,8,2.498
88,1.67884E+12,18,-20,50,2,1.094,12,2.415,8,1.312,17,1.805,8,1.127,8,2.185
88,1.67884E+12,19,80,-80,1,0.863,19,3.224,9,1.895,4,3.103,9,1.46,9,1.966
88,1.67884E+12,20,20,-50,2,1.285,13,2.463,8,0.967,15,1.965,8,0.919,9,2.124
88,1.67884E+12,21,-20,80,2,0.67,8,4.2,7,2.209,18,2.647,9,1.504,9,2.422
88,1.67884E+12,22,20,-20,1,0.718,14,2.491,8,0.992,8,2.884,8,1.335,8,1.802
88,1.67884E+12,23,-80,20,2,0.694,3,3.901,9,1.983,15,1.927,7,1.351,8,1.429
88,1.67884E+12,24,50,-80,1,0.806,14,2.808,8,4.632,2,2.07,8,1.64,8,1.426
88,1.67884E+12,25,-20,-80,1,1.969,,,,,,,,,,
88,1.67884E+12,26,-80,-50,2,1.66,,,,,,,,,,
88,1.67884E+12,27,-50,-20,1,1.622,,,,,,,,,,
88,1.67884E+12,28,-50,-80,1,0.933,14,3.837,8,1.99,3,2.748,7,1.599,8,2.257
88,1.67884E+12,29,-20,-50,2,0.694,8,5.864,7,1.062,15,1.732,7,1.286,7,1.721
88,1.67884E+12,30,-80,-20,2,0.678,2,2.946,8,1.509,8,1.967,7,0.916,7,2.681
89,1.67884E+12,1,80,-50,1,1.457,,,,,,,,,,
89,1.67884E+12,2,-20,50,2,1.275,,,,,,,,,,
89,1.67884E+12,3,80,-80,1,1.134,,,,,,,,,,
89,1.67884E+12,4,-80,50,2,2.346,,,,,,,,,,
89,1.67884E+12,5,50,-50,1,1.997,,,,,,,,,,
89,1.67884E+12,6,20,-50,1,1.262,,,,,,,,,,
89,1.67884E+12,7,-80,20,2,1.344,,,,,,,,,,
89,1.67884E+12,8,-20,80,2,1.317,,,,,,,,,,
89,1.67884E+12,9,-20,20,2,1.152,,,,,,,,,,
89,1.67884E+12,10,50,-20,1,1.089,15,6.425,8,1.226,8,2.045,7,6.775,10,2.73
89,1.67884E+12,11,80,-20,1,0.658,18,3.168,9,1.633,6,1.676,9,2.23,10,3.176
89,1.67884E+12,12,20,-80,1,0.666,11,2.588,6,4.182,1,2.113,9,1.559,5,7.239
89,1.67884E+12,13,-50,50,2,0.644,4,9.584,7,1.853,15,3.424,9,1.649,9,2.058
89,1.67884E+12,14,-50,20,2,0.636,5,2.873,9,1.805,11,1.684,7,2.257,9,1.599
89,1.67884E+12,15,20,-20,1,0.705,11,2.163,9,1.854,8,1.909,6,4.051,7,2.514
89,1.67884E+12,16,-50,80,2,0.792,4,3.444,8,65.023,19,2.741,10,3.251,10,2.39
89,1.67884E+12,17,50,-80,1,1.295,16,2.416,9,1.846,0,2.073,10,1.906,8,2.15
89,1.67884E+12,18,-80,80,2,1.202,2,1.988,9,2.44,19,1.582,9,1.416,9,1.752
89,1.67884E+12,19,-20,-50,1,6.174,,,,,,,,,,
89,1.67884E+12,20,-80,-50,2,2.118,,,,,,,,,,
89,1.67884E+12,21,-80,-20,2,1.49,,,,,,,,,,
89,1.67884E+12,22,-50,-80,1,1.274,5,2.353,9,1.415,0,1.735,10,0.998,9,2.209
89,1.67884E+12,23,-50,-20,2,0.812,4,1.67,8,1.291,8,1.84,8,1.242,7,1.898
89,1.67884E+12,24,-20,-80,1,0.823,7,2.817,8,1.599,2,1.517,3,1.641,9,2.573
89,1.67884E+12,25,20,50,2,1.31,,,,,,,,,,
89,1.67884E+12,26,80,50,1,1.382,,,,,,,,,,
89,1.67884E+12,27,80,20,1,1.518,,,,,,,,,,
89,1.67884E+12,28,50,80,2,0.635,16,3.007,9,1.687,20,1.77,9,1.245,10,1.626
89,1.67884E+12,29,20,80,2,0.616,11,2.074,6,1.231,20,1.519,10,1.185,10,1.493
89,1.67884E+12,30,50,20,1,0.913,15,1.829,9,2.003,11,1.564,7,1.049,7,24.282
90,1.67884E+12,1,50,80,2,2.47,,,,,,,,,,
90,1.67884E+12,2,50,20,1,2.649,,,,,,,,,,
90,1.67884E+12,3,80,20,1,1.667,,,,,,,,,,
90,1.67884E+12,4,20,50,2,1.469,12,4.561,5,1.518,15,5.951,5,2.074,7,4.982
90,1.67884E+12,5,20,80,2,1.184,12,2.977,7,1.352,18,3.443,5,1.493,7,1.504
90,1.67884E+12,6,80,50,2,1.039,18,3.489,5,1.965,16,4.043,6,3.872,3,4.281
90,1.67884E+12,7,50,-20,1,1.603,,,,,,,,,,
90,1.67884E+12,8,-80,80,2,1.709,,,,,,,,,,
90,1.67884E+12,9,-20,20,2,1.735,,,,,,,,,,
90,1.67884E+12,10,50,-50,1,1.167,,,,,,,,,,
90,1.67884E+12,11,50,-80,1,0.885,,,,,,,,,,
90,1.67884E+12,12,-20,80,2,0.947,,,,,,,,,,
90,1.67884E+12,13,-50,20,2,0.98,,,,,,,,,,
90,1.67884E+12,14,80,-50,1,2.414,,,,,,,,,,
90,1.67884E+12,15,20,-80,1,1.036,,,,,,,,,,
90,1.67884E+12,16,-80,20,2,0.911,2,4.035,5,1.493,12,2.795,5,1.973,5,1.999
90,1.67884E+12,17,-50,80,2,1.815,5,4.844,5,1.516,16,6.133,5,1.369,6,2.036
90,1.67884E+12,18,-80,50,2,0.874,0,3.28,6,2.522,16,3.416,5,1.455,6,3.921
90,1.67884E+12,19,20,-50,1,1.461,13,3.919,5,2.445,3,6.448,6,1.455,6,1.77
90,1.67884E+12,20,20,-20,1,1.107,11,4.367,5,1.123,9,3.057,5,2.09,7,1.842
90,1.67884E+12,21,-20,50,2,0.558,8,4.74,5,1.471,18,3.448,6,1.345,5,2.107
90,1.67884E+12,22,-50,50,2,1.389,8,8.554,5,2.333,18,3.18,7,1.872,5,2.307
90,1.67884E+12,23,80,-20,1,1.267,20,2.694,6,1.485,8,2.814,6,2.057,7,2.47
90,1.67884E+12,24,80,-80,1,1.131,20,5.927,5,1.792,1,3.015,6,2.641,8,2.109
90,1.67884E+12,25,-80,-20,2,6.959,,,,,,,,,,
90,1.67884E+12,26,-20,-50,1,6.802,,,,,,,,,,
90,1.67884E+12,27,-50,-80,1,1.32,,,,,,,,,,
90,1.67884E+12,28,-20,-80,1,1.415,6,2.589,4,2.012,1,2.327,5,1.658,8,2.321
90,1.67884E+12,29,-80,-50,2,1.249,0,3.557,6,1.462,6,2.57,5,1.265,6,1.691
90,1.67884E+12,30,-50,-20,2,1.338,6,2.559,5,2.16,8,2.044,5,1.438,6,1.486
91,1.67884E+12,1,50,80,2,2.143,,,,,,,,,,
91,1.67884E+12,2,20,50,1,2.129,,,,,,,,,,
91,1.67884E+12,3,20,80,2,1.71,,,,,,,,,,
91,1.67884E+12,4,80,50,1,2.326,16,4.605,7,2.319,15,4.066,6,1.601,8,4.253
91,1.67884E+12,5,80,20,2,2.506,16,5.102,7,2.553,12,2.987,9,2.47,6,3.253
91,1.67884E+12,6,50,20,2,1.426,15,3.219,5,2.27,13,4.627,6,2.576,5,4.761
91,1.67884E+12,7,-20,-50,2,4.988,,,,,,,,,,
91,1.67884E+12,8,-80,-50,2,2.131,,,,,,,,,,
91,1.67884E+12,9,-20,-80,1,2.083,,,,,,,,,,
91,1.67884E+12,10,-50,-20,1,1.746,8,3.767,5,2.571,6,3.515,5,2.413,5,2.995
91,1.67884E+12,11,-50,-80,2,1.512,10,3.083,6,2.543,6,5.626,5,2.303,5,2.835
91,1.67884E+12,12,-80,-20,2,1.475,6,4.637,6,2.506,8,3.011,6,4.203,5,3.208
91,1.67884E+12,13,-50,50,2,1.668,,,,,,,,,,
91,1.67884E+12,14,80,-50,1,1.402,,,,,,,,,,
91,1.67884E+12,15,-80,50,2,1.513,,,,,,,,,,
91,1.67884E+12,16,-20,20,2,1.575,,,,,,,,,,
91,1.67884E+12,17,80,-80,1,1.777,,,,,,,,,,
91,1.67884E+12,18,50,-20,1,2.084,,,,,,,,,,
91,1.67884E+12,19,-20,80,2,1.356,,,,,,,,,,
91,1.67884E+12,20,20,-50,1,1.488,,,,,,,,,,
91,1.67884E+12,21,-80,20,2,1.48,,,,,,,,,,
91,1.67884E+12,22,20,-20,1,1.533,12,4.4,5,6.08,8,3.368,5,2.282,5,2.467
91,1.67884E+12,23,50,-50,1,1.976,15,3.824,8,2.285,8,2.689,4,2.663,5,3.083
91,1.67884E+12,24,50,-80,1,1.161,16,3.056,6,3.662,4,3.538,5,2.238,5,2.777
91,1.67884E+12,25,-20,50,2,1.416,8,4.522,5,2.114,10,6.651,6,2.522,6,2.731
91,1.67884E+12,26,-50,20,2,1.128,8,2.724,5,2.396,13,3.556,5,4.149,7,3.139
91,1.67884E+12,27,-80,80,2,1.307,6,4.09,4,2.361,18,3.608,7,3.17,7,2.83
91,1.67884E+12,28,-50,80,2,1.36,8,2.863,6,3.242,17,6.831,8,3.399,5,2.578
91,1.67884E+12,29,20,-80,1,1.106,12,3.166,6,2.644,5,6.873,4,2.504,5,4.496
91,1.67884E+12,30,80,-20,1,2.121,16,6.073,7,3.338,8,3.451,4,2.442,5,3.126
92,1.67884E+12,1,50,-50,2,67.462,,,,,,,,,,
92,1.67884E+12,2,-50,20,1,0.802,,,,,,,,,,
92,1.67884E+12,3,50,-20,1,5.339,,,,,,,,,,
92,1.67884E+12,4,20,-20,1,1.805,,,,,,,,,,
92,1.67884E+12,5,20,-80,1,1.668,,,,,,,,,,
92,1.67884E+12,6,-20,80,2,1.748,,,,,,,,,,
92,1.67884E+12,7,-50,80,2,2.164,,,,,,,,,,
92,1.67884E+12,8,-80,80,2,1.116,,,,,,,,,,
92,1.67884E+12,9,-80,50,2,1.448,,,,,,,,,,
92,1.67884E+12,10,-20,20,2,4.209,8,6.039,4,1.259,12,4.912,4,1.196,4,5.389
92,1.67884E+12,11,80,-50,1,1.725,17,3.457,5,1.344,3,7.55,3,1.344,3,2.011
92,1.67884E+12,12,20,-50,1,1.399,11,3.192,4,1.392,3,2.616,4,1.855,2,2.235
92,1.67884E+12,13,-80,20,2,2.423,1,2.775,2,1.64,10,2.294,4,1.417,3,2.281
92,1.67884E+12,14,-50,50,2,4.928,5,4.343,3,1.16,14,6.333,4,1.674,1,2.516
92,1.67884E+12,15,80,-20,1,1.125,17,72.511,2,2.183,8,2.002,3,1.713,3,1.309
92,1.67884E+12,16,80,-80,1,1.169,16,1.536,3,1.193,2,2.068,2,1.079,3,59.857
92,1.67884E+12,17,-20,50,2,2.656,8,2.456,3,0.843,5,1.8,3,1.614,5,1.421
92,1.67884E+12,18,50,-80,1,1.524,13,1.359,4,1.12,1,2.836,5,1.572,3,1.283
92,1.67884E+12,19,20,50,1,1.197,,,,,,,,,,
92,1.67884E+12,20,80,20,1,1.58,,,,,,,,,,
92,1.67884E+12,21,80,50,2,5.839,,,,,,,,,,
92,1.67884E+12,22,50,80,1,1.531,14,4.226,5,1.177,17,3.145,4,1.471,4,1.561
92,1.67884E+12,23,20,80,2,2.099,12,2.859,5,1.488,15,4.211,4,1.479,3,1.389
92,1.67884E+12,24,50,20,2,0.86,14,3.342,4,1.341,14,2.219,3,1.564,3,1.76
92,1.67884E+12,25,-80,-50,1,2.767,,,,,,,,,,
92,1.67884E+12,26,-50,-20,2,2.091,,,,,,,,,,
92,1.67884E+12,27,-80,-20,2,1.238,,,,,,,,,,
92,1.67884E+12,28,-20,-50,1,2.092,9,1.96,5,1.486,7,1.755,3,1.253,3,2.729
92,1.67884E+12,29,-50,-80,1,1.887,7,2.121,3,1,2,1.937,3,1.599,4,1.764
92,1.67884E+12,30,-20,-80,1,1.46,7,1.891,4,1.236,2,2.62,3,1.068,4,1.319
93,1.67884E+12,1,50,-80,1,2.362,,,,,,,,,,
93,1.67884E+12,2,-20,50,2,1.918,,,,,,,,,,
93,1.67884E+12,3,-50,50,2,1.359,,,,,,,,,,
93,1.67884E+12,4,-50,20,2,2.998,,,,,,,,,,
93,1.67884E+12,5,80,-20,1,1.382,,,,,,,,,,
93,1.67884E+12,6,80,-80,1,1.093,,,,,,,,,,
93,1.67884E+12,7,20,-80,1,1.164,,,,,,,,,,
93,1.67884E+12,8,-20,20,2,1.554,,,,,,,,,,
93,1.67884E+12,9,-50,80,2,1.128,,,,,,,,,,
93,1.67884E+12,10,-20,80,2,3.77,16,3.28,5,1.165,19,2.76,6,1.198,8,3.091
93,1.67884E+12,11,50,-20,1,1.339,14,4.582,6,1.993,3,2.248,8,2.504,10,1.959
93,1.67884E+12,12,-80,80,2,1.546,2,2.92,9,2.117,18,2.488,9,2.557,10,1.593
93,1.67884E+12,13,-80,50,2,0.596,2,2.651,6,1.619,14,2.142,9,1.123,9,15.338
93,1.67884E+12,14,20,-20,1,1.291,13,2.976,7,1.771,0,3.277,3,2.116,8,1.493
93,1.67884E+12,15,50,-50,1,0.924,14,3.036,6,1.737,4,2.203,8,1.902,9,1.334
93,1.67884E+12,16,-80,20,2,0.652,2,3.111,5,2.322,15,3.161,6,1.371,6,3.074
93,1.67884E+12,17,20,-50,1,0.992,16,5.043,3,2.343,4,2.354,3,1.899,8,1.519
93,1.67884E+12,18,80,-50,1,1.001,18,2.284,9,1.323,4,1.86,7,0.975,10,1.446
93,1.67884E+12,19,20,50,1,2.415,,,,,,,,,,
93,1.67884E+12,20,80,20,1,1.587,,,,,,,,,,
93,1.67884E+12,21,80,50,1,0.859,,,,,,,,,,
93,1.67884E+12,22,50,20,1,0.741,16,3.593,5,1.669,13,3.268,5,1.047,8,4.122
93,1.67884E+12,23,50,80,2,0.775,18,2.692,6,1.575,20,1.923,10,1.393,10,1.23
93,1.67884E+12,24,20,80,2,0.994,13,2.13,6,1.857,18,2.266,9,2.142,9,2.498
93,1.67884E+12,25,-80,-50,1,2.801,,,,,,,,,,
93,1.67884E+12,26,-80,-20,1,1.737,,,,,,,,,,
93,1.67884E+12,27,-20,-50,1,3.424,,,,,,,,,,
93,1.67884E+12,28,-20,-80,2,0.637,3,3.651,7,1.93,6,4.891,5,2.622,7,2.256
93,1.67884E+12,29,-50,-80,2,0.655,4,2.418,6,2.137,8,1.675,9,1.665,8,1.36
93,1.67884E+12,30,-50,-20,1,0.68,2,2.189,3,2.817,0,2.493,8,1.244,2,2.635
94,1.67884E+12,1,-20,-80,2,3.234,,,,,,,,,,
94,1.67884E+12,2,-50,-20,2,2.147,,,,,,,,,,
94,1.67884E+12,3,-50,-80,1,2.433,,,,,,,,,,
94,1.67884E+12,4,-80,-50,2,1.773,2,4.144,3,2.888,5,5.872,4,1.711,10,4.278
94,1.67884E+12,5,-20,-50,1,1.097,8,2.66,4,1.259,5,3.506,5,1.841,10,3.175
94,1.67884E+12,6,-80,-20,2,1.376,1,2.953,5,1.316,8,2.573,5,1.522,10,1.726
94,1.67884E+12,7,80,-20,1,1.338,,,,,,,,,,
94,1.67884E+12,8,20,-50,1,2.192,,,,,,,,,,
94,1.67884E+12,9,-20,20,2,1.272,,,,,,,,,,
94,1.67884E+12,10,-20,50,2,1.501,,,,,,,,,,
94,1.67884E+12,11,50,-50,1,1.307,,,,,,,,,,
94,1.67884E+12,12,-80,50,2,1.601,,,,,,,,,,
94,1.67884E+12,13,20,-80,1,1.118,,,,,,,,,,
94,1.67884E+12,14,-80,80,2,1.599,,,,,,,,,,
94,1.67884E+12,15,-50,80,2,1.243,,,,,,,,,,
94,1.67884E+12,16,-80,20,2,1.011,2,3.641,5,1.874,12,2.48,5,1.355,10,2.04
94,1.67884E+12,17,80,-50,1,1.748,19,4.634,7,2.011,4,5.373,4,3.301,10,1.945
94,1.67884E+12,18,50,-20,1,1.345,15,2.757,5,1.452,8,1.957,5,1.219,10,2.725
94,1.67884E+12,19,-50,20,2,1.081,5,3.078,5,1.275,13,2.054,6,1.966,10,2.212
94,1.67884E+12,20,50,-80,1,1.641,16,2.676,6,2.055,1,2.63,8,4.372,10,2.868
94,1.67884E+12,21,-50,50,2,1.238,4,5.814,6,1.427,16,3.807,6,1.48,10,2.534
94,1.67884E+12,22,20,-20,1,0.963,12,2.917,6,4.779,8,4.261,6,1.856,10,1.734
94,1.67884E+12,23,-20,80,2,1.251,8,1.889,5,1.635,19,2.747,7,1.343,10,1.977
94,1.67884E+12,24,80,-80,1,1.076,19,2.175,7,1.382,1,2.793,7,1.507,10,2.189
94,1.67884E+12,25,80,50,1,1.489,,,,,,,,,,
94,1.67884E+12,26,20,50,2,1.425,,,,,,,,,,
94,1.67884E+12,27,80,20,1,1.274,,,,,,,,,,
94,1.67884E+12,28,20,80,2,1.705,8,2.336,0,5.03,18,3.567,7,1.462,10,2.313
94,1.67884E+12,29,50,80,2,1.221,15,2.06,5,2.407,19,2.711,7,4.68,9,3.198
94,1.67884E+12,30,50,20,1,1.722,14,2.529,6,3.348,12,2.256,6,1.099,9,1.597
95,1.67884E+12,1,20,-80,1,2.036,,,,,,,,,,
95,1.67884E+12,2,-80,80,2,1.318,,,,,,,,,,
95,1.67884E+12,3,50,-20,1,1.945,,,,,,,,,,
95,1.67884E+12,4,20,-50,1,1.028,,,,,,,,,,
95,1.67884E+12,5,80,-20,1,1.789,,,,,,,,,,
95,1.67884E+12,6,20,-20,1,1.208,,,,,,,,,,
95,1.67884E+12,7,-50,50,2,1.392,,,,,,,,,,
95,1.67884E+12,8,-80,50,2,1.343,,,,,,,,,,
95,1.67884E+12,9,80,-50,1,1.083,,,,,,,,,,
95,1.67884E+12,10,-80,20,2,1.719,0,4.309,9,3.231,10,4.967,10,1.496,9,6.243
95,1.67884E+12,11,80,-80,1,0.975,18,5.62,4,2.399,0,2.646,9,1.144,8,3.962
95,1.67884E+12,12,-50,80,2,0.735,3,3.708,9,1.28,18,2.327,4,1.967,8,1.413
95,1.67884E+12,13,-50,20,2,0.815,3,2.288,9,1.207,10,1.855,10,1.367,8,1.116
95,1.67884E+12,14,-20,20,2,0.847,6,3.086,9,1.064,10,1.534,10,1.071,8,1.513
95,1.67884E+12,15,-20,80,2,1.055,6,2.439,9,2.03,18,2.172,5,3.143,8,1.122
95,1.67884E+12,16,50,-80,1,1.095,15,3.164,7,1.87,0,1.807,10,1.247,8,2.068
95,1.67884E+12,17,50,-50,1,1.461,15,2.078,9,1.495,3,2.741,9,1.952,8,2.211
95,1.67884E+12,18,-20,50,2,1.007,6,2.071,9,1.429,15,1.919,6,2.024,9,1.515
95,1.67884E+12,19,20,80,2,2.465,,,,,,,,,,
95,1.67884E+12,20,20,50,2,1.901,,,,,,,,,,
95,1.67884E+12,21,50,80,2,1.241,,,,,,,,,,
95,1.67884E+12,22,80,50,1,0.943,18,3.47,6,1.599,15,2.262,8,1.927,1,2.715
95,1.67884E+12,23,50,20,1,0.694,15,2.4,7,3.334,10,1.703,10,1.006,8,2.755
95,1.67884E+12,24,80,20,1,1.038,18,1.931,5,2.143,10,1.39,10,1.151,2,3.107
95,1.67884E+12,25,-80,-50,2,2.415,,,,,,,,,,
95,1.67884E+12,26,-50,-20,2,2.88,,,,,,,,,,
95,1.67884E+12,27,-20,-80,1,1.339,,,,,,,,,,
95,1.67884E+12,28,-80,-20,2,0.775,0,2.261,10,1.064,6,2.223,9,1.447,5,3.947
95,1.67884E+12,29,-50,-80,1,0.983,3,3.396,9,1.056,0,1.975,10,1.199,8,1.883
95,1.67884E+12,30,-20,-50,1,0.718,6,2.177,10,1.503,3,2.503,10,1.159,8,1.635
96,1.67884E+12,1,20,50,1,3.128,,,,,,,,,,
96,1.67884E+12,2,80,50,1,1.487,,,,,,,,,,
96,1.67884E+12,3,20,80,1,1.67,,,,,,,,,,
96,1.67884E+12,4,80,20,1,1.859,19,9.931,8,2.43,6,4.269,2,2.011,4,2.191
96,1.67884E+12,5,50,80,2,0.695,12,15.705,5,1.689,16,2.645,7,2.531,6,4.043
96,1.67884E+12,6,50,20,2,7.738,12,2.967,5,3.344,12,3.924,5,5.592,2,3.474
96,1.67884E+12,7,-20,-80,1,4.421,,,,,,,,,,
96,1.67884E+12,8,-50,-80,1,7.901,,,,,,,,,,
96,1.67884E+12,9,-20,-50,2,1.588,,,,,,,,,,
96,1.67884E+12,10,-80,-50,2,0.845,8,4.298,7,2.964,14,3.595,7,3.229,5,5.16
96,1.67884E+12,11,-50,-20,1,1.609,14,3.885,5,1.823,10,4.139,6,3.655,5,2.423
96,1.67884E+12,12,-80,-20,2,1.558,14,2.654,5,1.989,13,1.755,7,2.281,7,4.998
96,1.67884E+12,13,-20,20,1,1.288,,,,,,,,,,
96,1.67884E+12,14,80,-80,1,1.12,,,,,,,,,,
96,1.67884E+12,15,50,-80,1,1.955,,,,,,,,,,
96,1.67884E+12,16,20,-50,2,1.286,,,,,,,,,,
96,1.67884E+12,17,-20,80,2,0.903,,,,,,,,,,
96,1.67884E+12,18,50,-20,1,2.72,,,,,,,,,,
96,1.67884E+12,19,-80,20,2,1.804,,,,,,,,,,
96,1.67884E+12,20,-50,80,2,1.071,,,,,,,,,,
96,1.67884E+12,21,50,-50,2,0.969,,,,,,,,,,
96,1.67884E+12,22,80,-50,1,1.512,17,2.915,7,3.226,14,5.145,6,2.658,7,2.694
96,1.67884E+12,23,-80,80,2,0.89,8,9.887,6,1.556,16,2.27,7,2.361,7,3.238
96,1.67884E+12,24,80,-20,1,2.36,18,4.802,10,1.53,10,4.36,5,2.161,6,2.81
96,1.67884E+12,25,20,-20,1,1.39,10,3.835,4,3.178,12,3.34,2,1.571,6,8.396
96,1.67884E+12,26,-80,50,1,2.295,12,3.089,2,1.876,8,7.478,3,1.677,2,3.304
96,1.67884E+12,27,-20,50,2,1.942,8,4.703,5,2.587,6,3.407,5,2.038,7,3.261
96,1.67884E+12,28,-50,50,2,2.008,6,4.169,6,2.296,15,3.126,7,1.405,7,2.77
96,1.67884E+12,29,20,-80,1,1.633,12,3.068,6,2.372,8,2.989,6,1.739,6,3.112
96,1.67884E+12,30,-50,20,2,1.179,8,3.902,6,2.626,12,3.76,5,1.626,7,2.989
97,1.67884E+12,1,-80,-20,2,3.916,,,,,,,,,,
97,1.67884E+12,2,-50,-80,1,2.198,,,,,,,,,,
97,1.67884E+12,3,-50,-20,1,1.924,,,,,,,,,,
97,1.67884E+12,4,-80,-50,2,2.082,3,3.979,8,1.88,6,3.115,7,1.737,6,5.097
97,1.67884E+12,5,-20,-50,2,2.04,6,3.046,7,3.213,8,2.959,7,1.709,3,2.964
97,1.67884E+12,6,-20,-80,1,1.248,7,3.082,6,2.503,4,2.478,6,2.862,7,2.289
97,1.67884E+12,7,80,-80,1,1.657,,,,,,,,,,
97,1.67884E+12,8,80,-50,1,1.436,,,,,,,,,,
97,1.67884E+12,9,-20,50,2,1.5,,,,,,,,,,
97,1.67884E+12,10,-20,80,2,1.291,,,,,,,,,,
97,1.67884E+12,11,50,-80,1,1.328,,,,,,,,,,
97,1.67884E+12,12,-80,20,2,1.449,,,,,,,,,,
97,1.67884E+12,13,-50,50,2,1.19,,,,,,,,,,
97,1.67884E+12,14,-20,20,2,1.326,,,,,,,,,,
97,1.67884E+12,15,-50,20,2,2.126,,,,,,,,,,
97,1.67884E+12,16,20,-20,1,1.106,13,3.115,7,1.895,6,2.802,7,1.753,7,2.934
97,1.67884E+12,17,-50,80,2,1.181,6,2.791,7,2.951,19,2.838,9,1.574,10,3.292
97,1.67884E+12,18,-80,50,2,0.93,2,2.747,7,3.558,15,2.622,8,1.923,10,2.824
97,1.67884E+12,19,20,-80,1,1.26,12,3.377,7,2.503,4,2.322,5,1.812,10,3.122
97,1.67884E+12,20,80,-20,1,1.017,18,3.884,7,2.488,5,2.354,8,2.91,10,2.913
97,1.67884E+12,21,20,-50,1,1.124,12,2.514,7,3.175,6,2.856,6,2.581,10,3.088
97,1.67884E+12,22,-80,80,2,1.005,3,2.824,8,2.409,19,2.878,8,2.538,10,2.648
97,1.67884E+12,23,50,-50,1,1.553,15,3.205,8,2.553,6,2.248,8,2.436,10,2.935
97,1.67884E+12,24,50,-20,1,1.05,16,2.621,8,1.791,3,2.297,6,2.407,10,3.352
97,1.67884E+12,25,50,80,2,1.743,,,,,,,,,,
97,1.67884E+12,26,50,20,1,1.514,,,,,,,,,,
97,1.67884E+12,27,80,20,1,1.214,,,,,,,,,,
97,1.67884E+12,28,20,50,2,0.946,12,3.494,7,3.048,16,2.997,7,2.222,10,2.789
97,1.67884E+12,29,80,50,1,1.048,18,2.729,7,2.696,14,3.589,8,3.074,10,2.265
97,1.67884E+12,30,20,80,2,1.494,12,3.131,7,2.381,18,3.006,7,2.148,10,2.955
98,1.67884E+12,1,-50,20,2,14.333,,,,,,,,,,
98,1.67884E+12,2,-80,80,2,2.945,,,,,,,,,,
98,1.67884E+12,3,-20,50,2,4.014,,,,,,,,,,
98,1.67884E+12,4,-80,20,2,3.409,,,,,,,,,,
98,1.67884E+12,5,-80,50,2,20.607,,,,,,,,,,
98,1.67884E+12,6,20,-20,1,1.509,,,,,,,,,,
98,1.67884E+12,7,50,-50,1,8.304,,,,,,,,,,
98,1.67884E+12,8,-50,80,2,1.166,,,,,,,,,,
98,1.67884E+12,9,80,-20,1,1.24,,,,,,,,,,
98,1.67884E+12,10,-50,50,2,3.013,5,5.899,6,2.205,14,5.561,7,1.542,9,11.626
98,1.67884E+12,11,-20,80,2,2.142,8,2.904,8,1.854,18,2.807,7,1.901,10,2.481
98,1.67884E+12,12,80,-50,1,2.343,18,3.094,8,1.679,4,6.934,4,1.303,10,2.777
98,1.67884E+12,13,80,-80,1,1.038,19,4.139,6,1.679,2,5.631,7,2.424,9,2.177
98,1.67884E+12,14,20,-50,1,0.75,11,3.789,7,2.544,5,2.862,8,2.239,9,2.54
98,1.67884E+12,15,20,-80,1,2.495,12,2.299,7,1.36,1,3.549,6,1.727,9,1.947
98,1.67884E+12,16,50,-80,1,1.203,15,3.734,6,3.535,2,2.958,8,1.655,9,2.107
98,1.67884E+12,17,50,-20,1,1.462,15,6.325,7,5.118,7,5.91,7,1.991,9,2.243
98,1.67884E+12,18,-20,20,2,1.118,8,2.151,6,1.319,12,1.767,7,2.567,9,2.108
98,1.67884E+12,19,50,20,1,3.98,,,,,,,,,,
98,1.67884E+12,20,50,80,2,1.823,,,,,,,,,,
98,1.67884E+12,21,20,80,2,1.421,,,,,,,,,,
98,1.67884E+12,22,80,20,1,0.857,18,2.742,7,1.198,12,2.245,7,2.35,9,2.195
98,1.67884E+12,23,20,50,2,1.078,13,2.213,7,2.253,16,3.066,6,1.486,9,4.122
98,1.67884E+12,24,80,50,1,1.509,19,2.113,7,1.878,15,2.502,7,1.583,10,2.426
98,1.67884E+12,25,-20,-50,1,2.589,,,,,,,,,,
98,1.67884E+12,26,-20,-80,1,1.523,,,,,,,,,,
98,1.67884E+12,27,-80,-50,2,1.892,,,,,,,,,,
98,1.67884E+12,28,-50,-20,2,1.262,4,3.221,5,1.383,8,2.086,7,1.838,8,4.05
98,1.67884E+12,29,-50,-80,1,1.086,5,3.76,6,1.143,1,2.494,4,2.479,7,3.635
98,1.67884E+12,30,-80,-20,2,1.567,2,2.593,6,1.447,7,2.319,7,1.526,9,2.244
99,1.67884E+12,1,80,50,1,4.434,,,,,,,,,,
99,1.67884E+12,2,50,20,1,7.283,,,,,,,,,,
99,1.67884E+12,3,80,20,1,1.971,,,,,,,,,,
99,1.67884E+12,4,20,80,2,2.472,12,3.608,8,3.101,19,4.538,6,2.453,8,2.683
99,1.67884E+12,5,20,50,2,1.843,12,5.225,7,1.911,16,3.589,6,2.266,6,3.04
99,1.67884E+12,6,50,80,2,1.342,15,2.743,6,3.45,18,3.143,7,1.969,6,2.497
99,1.67884E+12,7,-20,-50,1,5.217,,,,,,,,,,
99,1.67884E+12,8,-80,-20,2,2.39,,,,,,,,,,
99,1.67884E+12,9,-80,-50,2,2.405,,,,,,,,,,
99,1.67884E+12,10,-20,-80,1,1.401,8,4.668,8,1.957,2,4.154,8,3.243,7,3.492
99,1.67884E+12,11,-50,-80,1,3.487,4,4.612,8,2.45,2,4.106,7,3.953,8,3.073
99,1.67884E+12,12,-50,-20,2,1.101,4,6.83,6,4.307,8,3.27,8,1.826,7,8.08
99,1.67884E+12,13,20,-20,1,3.313,,,,,,,,,,
99,1.67884E+12,14,-80,50,2,3.228,,,,,,,,,,
99,1.67884E+12,15,-80,80,2,2.263,,,,,,,,,,
99,1.67884E+12,16,-50,80,2,2.755,,,,,,,,,,
99,1.67884E+12,17,50,-20,2,5.733,,,,,,,,,,
99,1.67884E+12,18,20,-50,1,2.615,,,,,,,,,,
99,1.67884E+12,19,-50,50,2,1.815,,,,,,,,,,
99,1.67884E+12,20,-80,20,2,2.674,,,,,,,,,,
99,1.67884E+12,21,-20,80,2,2.061,,,,,,,,,,
99,1.67884E+12,22,50,-50,1,2.877,16,6.11,8,1.941,4,6.513,6,1.811,8,3.768
99,1.67884E+12,23,80,-50,1,1.361,19,3.478,8,3.103,4,2.493,7,2.713,9,3.462
99,1.67884E+12,24,80,-80,1,2.01,19,3.459,9,2.332,0,5.606,8,3.937,8,3.818
99,1.67884E+12,25,-20,20,2,1.62,8,4.292,6,2.683,12,3.617,7,2.134,8,4.296
99,1.67884E+12,26,50,-80,1,1.959,16,3.455,7,3.229,2,3.279,8,4.125,9,3.818
99,1.67884E+12,27,20,-80,1,1.549,12,3.591,7,3.657,0,4.499,8,2.817,8,3.609
99,1.67884E+12,28,-20,50,2,1.261,8,7.072,8,2.892,16,2.571,8,3.636,7,2.335
99,1.67884E+12,29,80,-20,1,1.004,19,3.004,7,10.676,8,8.95,8,3.09,9,2.725
99,1.67884E+12,30,-50,20,2,1.19,3,4.003,7,2.424,12,2.168,7,1.805,7,2.429
100,1.67884E+12,1,-80,-20,2,5.992,,,,,,,,,,
100,1.67884E+12,2,-80,-50,2,2.22,,,,,,,,,,
100,1.67884E+12,3,-20,-50,1,1.715,,,,,,,,,,
100,1.67884E+12,4,-20,-80,1,1.296,8,3.461,10,1.353,2,2.704,10,1.439,5,4.559
100,1.67884E+12,5,-50,-80,1,1.058,5,3.904,10,1.444,2,1.463,10,0.904,5,2.001
100,1.67884E+12,6,-50,-20,2,0.944,5,2.057,10,1.189,8,2.079,10,1.242,5,2.081
100,1.67884E+12,7,20,-20,1,1.35,,,,,,,,,,
100,1.67884E+12,8,-80,80,2,1.186,,,,,,,,,,
100,1.67884E+12,9,80,-50,1,1.536,,,,,,,,,,
100,1.67884E+12,10,-20,80,2,1.865,,,,,,,,,,
100,1.67884E+12,11,-20,50,2,2.071,,,,,,,,,,
100,1.67884E+12,12,-80,20,2,2.155,,,,,,,,,,
100,1.67884E+12,13,-80,50,2,1.544,,,,,,,,,,
100,1.67884E+12,14,-50,50,2,2.092,,,,,,,,,,
100,1.67884E+12,15,-50,20,2,1.518,,,,,,,,,,
100,1.67884E+12,16,50,-20,1,1.497,16,3.408,8,2.276,8,2.25,10,1.392,10,1.863
100,1.67884E+12,17,20,-80,1,1.135,12,2.828,10,1.263,2,2.691,10,3.307,10,1.956
100,1.67884E+12,18,50,-50,1,0.727,16,7.354,10,1.665,4,2.794,10,1.512,10,1.639
100,1.67884E+12,19,-50,80,2,0.626,5,2.045,10,2.215,18,3.68,10,1.412,10,1.008
100,1.67884E+12,20,80,-80,1,0.805,18,2.753,10,1.244,2,2.633,10,0.922,10,1.17
100,1.67884E+12,21,20,-50,1,0.853,12,3.916,10,1.803,5,3.477,10,1.306,10,1.895
100,1.67884E+12,22,80,-20,1,0.531,18,6.17,10,1.184,8,1.795,10,1.114,10,1.924
100,1.67884E+12,23,-20,20,2,0.643,8,1.706,10,1.898,12,1.985,10,1.003,10,1.105
100,1.67884E+12,24,50,-80,1,0.774,16,2.908,10,1.455,2,1.495,10,2.303,10,1.551
100,1.67884E+12,25,20,80,2,2.214,,,,,,,,,,
100,1.67884E+12,26,80,50,1,1.576,,,,,,,,,,
100,1.67884E+12,27,20,50,2,1.704,,,,,,,,,,
100,1.67884E+12,28,80,20,1,0.897,18,2.671,10,1.338,12,1.8,10,1.178,10,1.043
100,1.67884E+12,29,50,20,1,0.778,15,4.42,10,0.994,12,1.287,10,1.302,10,1.666
100,1.67884E+12,30,50,80,2,0.608,15,2.137,10,1.299,18,1.651,10,1.493,10,0.998
101,1.67884E+12,1,-50,-80,1,4.002,,,,,,,,,,
101,1.67884E+12,2,-20,-80,1,3.478,,,,,,,,,,
101,1.67884E+12,3,-50,-20,2,2.004,,,,,,,,,,
101,1.67884E+12,4,-20,-50,1,1.209,8,4.244,7,3.748,6,4.585,7,1.645,9,4.993
101,1.67884E+12,5,-80,-50,2,1.355,2,2.954,8,2.738,6,3.522,8,1.58,10,3.703
101,1.67884E+12,6,-80,-20,2,1.712,2,3.256,7,2.566,8,2.702,8,1.94,10,2.094
101,1.67884E+12,7,-50,80,2,2.325,,,,,,,,,,
101,1.67884E+12,8,50,-50,1,2.601,,,,,,,,,,
101,1.67884E+12,9,-20,50,2,3.331,,,,,,,,,,
101,1.67884E+12,10,-80,50,2,1.734,,,,,,,,,,
101,1.67884E+12,11,80,-20,1,1.734,,,,,,,,,,
101,1.67884E+12,12,20,-20,1,12.398,,,,,,,,,,
101,1.67884E+12,13,20,-50,1,1.381,,,,,,,,,,
101,1.67884E+12,14,-80,80,2,1.728,,,,,,,,,,
101,1.67884E+12,15,20,-80,1,1.366,,,,,,,,,,
101,1.67884E+12,16,80,-50,1,1.474,18,9.529,7,3.703,6,3.716,7,1.812,10,3.21
101,1.67884E+12,17,-20,20,2,1.781,8,2.392,8,2.805,12,6.047,7,2.347,10,2.83
101,1.67884E+12,18,80,-80,1,1.213,18,3.281,8,2.298,2,3.881,8,2.188,10,2.914
101,1.67884E+12,19,-50,20,2,1.462,6,4.316,7,1.805,12,3.191,7,2.776,10,2.536
101,1.67884E+12,20,50,-20,1,1.488,15,6.52,8,2.481,8,2.459,7,1.876,10,2.617
101,1.67884E+12,21,-50,50,2,1.281,6,2.826,7,1.647,16,4.773,10,2.494,10,3.055
101,1.67884E+12,22,-80,20,2,1.382,2,2.579,8,2.26,13,4.556,8,4.665,10,2.148
101,1.67884E+12,23,-20,80,2,1.271,8,2.645,7,3.214,18,3.749,8,3.404,10,2.075
101,1.67884E+12,24,50,-80,1,1.655,18,2.858,7,3.307,1,3.511,7,2.594,10,1.516
101,1.67884E+12,25,20,50,2,2.186,,,,,,,,,,
101,1.67884E+12,26,20,80,2,1.675,,,,,,,,,,
101,1.67884E+12,27,80,50,1,1.676,,,,,,,,,,
101,1.67884E+12,28,50,20,1,1.572,15,3.512,8,2.876,12,2.943,8,2.377,10,2.434
101,1.67884E+12,29,80,20,1,1.528,18,2.518,8,2.557,12,2.41,7,2.9,10,4.737
101,1.67884E+12,30,50,80,2,2.111,15,3.948,8,3.106,18,2.4,8,3.445,10,1.934
102,1.67884E+12,1,-50,-20,2,5.877,,,,,,,,,,
102,1.67884E+12,2,-20,-80,1,1.969,,,,,,,,,,
102,1.67884E+12,3,-50,-80,1,3.756,,,,,,,,,,
102,1.67884E+12,4,-80,-20,2,2.589,2,8.355,7,1.944,8,3.597,7,3.213,8,5.928
102,1.67884E+12,5,-80,-50,2,0.892,1,4.68,5,2.156,6,5.235,6,1.83,7,2.615
102,1.67884E+12,6,-20,-50,1,1.173,8,3.517,8,2.313,6,2.394,6,1.576,9,2.165
102,1.67884E+12,7,20,80,2,6.64,,,,,,,,,,
102,1.67884E+12,8,50,80,2,1.491,,,,,,,,,,
102,1.67884E+12,9,20,50,2,2.726,,,,,,,,,,
102,1.67884E+12,10,80,20,1,1.097,18,3.874,7,1.948,12,3.431,7,2.148,10,4.099
102,1.67884E+12,11,80,50,1,0.979,17,3.267,8,2.067,15,3.096,7,2.09,8,2.125
102,1.67884E+12,12,50,20,1,0.845,14,4.872,6,1.657,11,3.378,6,1.992,8,1.797
102,1.67884E+12,13,-80,50,1,1.092,,,,,,,,,,
102,1.67884E+12,14,20,-80,1,2.727,,,,,,,,,,
102,1.67884E+12,15,-20,20,2,1.246,,,,,,,,,,
102,1.67884E+12,16,-50,20,2,1.446,,,,,,,,,,
102,1.67884E+12,17,-50,80,2,1.266,,,,,,,,,,
102,1.67884E+12,18,-50,50,2,1.617,,,,,,,,,,
102,1.67884E+12,19,-80,80,2,1.419,,,,,,,,,,
102,1.67884E+12,20,-20,50,2,1.02,,,,,,,,,,
102,1.67884E+12,21,80,-20,1,1.122,,,,,,,,,,
102,1.67884E+12,22,50,-80,1,0.856,14,2.954,6,2.016,2,2.424,8,1.328,9,1.625
102,1.67884E+12,23,20,-20,1,0.712,12,2.66,6,1.864,7,2.41,6,1.196,9,2.313
102,1.67884E+12,24,80,-50,1,0.999,19,3.165,8,2.279,5,3.482,6,1.583,9,3
102,1.67884E+12,25,20,-50,1,1.063,12,2.403,7,2.394,6,2.79,8,2.229,8,1.544
102,1.67884E+12,26,80,-80,1,0.877,17,3.157,7,1.844,3,2.418,6,1.479,10,1.742
102,1.67884E+12,27,-20,80,2,0.76,8,3.077,8,1.698,20,2.729,7,1.562,10,1.529
102,1.67884E+12,28,-80,20,2,0.766,2,3.698,8,2.4,12,6.691,6,2.332,8,1.55
102,1.67884E+12,29,50,-20,1,0.766,15,2.737,7,2.298,8,3.33,5,1.081,9,1.664
102,1.67884E+12,30,50,-50,1,0.748,15,4.008,7,2.625,5,2.777,7,2.427,9,2.266
239,1.68438E+12,1,-50,-80,1,3.188,8,5.568,8,2.275,1,4.268,9,2.132,9,3.945
239,1.68438E+12,2,-80,-20,2,0.865,1,3.31,10,2.728,8,5.101,9,3.181,10,3.505
239,1.68438E+12,3,-20,-50,1,5.71,8,3.453,8,2.681,6,4.113,9,6.431,5,3.468
239,1.68438E+12,4,-20,-80,1,0.662,7,3.784,7,1.653,0,2.679,10,1.648,10,2.365
239,1.68438E+12,5,-80,-50,2,1.202,1,2.732,10,2.255,7,2.46,9,3.002,10,2.264
239,1.68438E+12,6,-50,-20,1,3.694,7,3.484,6,2.57,7,3.02,5,1.323,3,2.867
239,1.68438E+12,7,50,-20,1,0.841,16,4.03,10,2.647,6,5.947,9,1.815,10,2.306
239,1.68438E+12,8,-80,20,2,0.62,1,2.284,10,1.885,12,4.836,10,1.908,10,1.993
239,1.68438E+12,9,-50,80,2,2.973,6,4.139,5,2.107,19,3.157,10,1.795,10,1.848
239,1.68438E+12,10,50,-80,1,1.449,16,2.902,9,1.259,1,2.687,10,1.2,10,1.577
239,1.68438E+12,11,-50,50,2,0.82,7,3.156,7,1.402,16,3.664,10,1.668,10,3.079
239,1.68438E+12,12,20,-50,1,0.882,12,3.08,9,1.371,6,2.832,5,2.171,10,2.932
239,1.68438E+12,13,80,-20,1,0.782,19,2.672,10,2.212,7,2.921,7,1.317,10,2.218
239,1.68438E+12,14,80,-80,1,1.055,19,2.55,10,1.894,1,4.587,10,1.728,10,3.06
239,1.68438E+12,15,20,-20,1,0.842,12,3.227,9,4.051,7,2.396,8,1.514,10,1.989
239,1.68438E+12,16,50,-50,1,0.782,16,2.241,9,1.919,6,2.78,7,1.827,10,1.557
239,1.68438E+12,17,-20,20,2,0.906,7,3.898,5,2.867,12,2.143,10,1.546,10,2.3
239,1.68438E+12,18,-20,50,2,0.802,7,2.906,7,1.081,16,2.697,10,1.516,10,1.703
239,1.68438E+12,19,80,-50,1,0.968,19,2.64,10,1.542,7,2.063,8,2.167,10,1.732
239,1.68438E+12,20,-50,20,2,0.999,7,3.724,7,1.396,12,2.05,10,1.384,10,2.584
239,1.68438E+12,21,20,-80,1,0.802,12,1.762,10,1.685,1,2.286,10,1.382,10,1.411
239,1.68438E+12,22,-80,80,2,0.815,1,2.375,10,1.546,19,2.148,10,2.357,10,1.602
239,1.68438E+12,23,-20,80,2,0.55,7,3.171,7,1.072,19,2.476,10,1.628,10,2.045
239,1.68438E+12,24,-80,50,2,0.746,1,3.385,10,2.64,16,2.664,10,2.066,10,1.792
239,1.68438E+12,25,50,20,1,1.482,16,2.199,9,3.648,12,1.913,9,1.356,10,3.929
239,1.68438E+12,26,80,20,1,0.751,18,3.145,10,2.027,12,1.839,10,1.899,10,2.089
239,1.68438E+12,27,80,50,1,2.398,19,2.154,10,2.549,16,1.937,10,1.708,10,1.905
239,1.68438E+12,28,20,50,2,0.728,12,1.648,9,2.704,16,1.924,10,1.453,10,2.068
239,1.68438E+12,29,20,80,2,0.648,12,3.188,9,1.427,19,3.503,10,1.323,10,2.639
239,1.68438E+12,30,50,80,2,0.594,16,1.799,9,1.785,19,2.51,10,1.853,10,1.608
240,1.68438E+12,1,-50,-80,2,6.46,10,3.788,5,2.305,10,3.544,5,2.579,2,5.424
240,1.68438E+12,2,-20,-50,1,2.346,10,53.972,5,2.11,10,2.835,3,9.507,5,37.046
240,1.68438E+12,3,-80,-20,2,25.649,16,6.94,6,4.723,10,35.473,2,5.584,5,6.405
240,1.68438E+12,4,-50,-20,2,3.824,13,24.921,3,2.78,10,4.09,6,3.084,6,16.64
240,1.68438E+12,5,-20,-80,2,1.593,10,14.855,5,2.747,10,3.473,5,1.926,5,2.427
240,1.68438E+12,6,-80,-50,2,1.73,10,5.804,5,2.759,10,4.313,5,2.523,5,3.21
240,1.68438E+12,7,-80,20,2,3.615,10,4.205,5,3.377,10,7.392,5,4.59,5,2.546
240,1.68438E+12,8,-20,50,2,1.322,10,3.358,5,2.71,10,6.709,5,18.667,5,3.035
240,1.68438E+12,9,-80,50,2,1.64,10,3.158,5,2.825,10,2.603,5,2.254,5,3.125
240,1.68438E+12,10,50,-50,2,1.153,10,97.991,5,2.209,10,2.526,5,2.109,5,3.64
240,1.68438E+12,11,80,-50,2,1.378,10,4.79,5,2.258,10,2.73,5,2.078,5,2.735
240,1.68438E+12,12,80,-80,2,1.332,20,5.841,7,3.724,16,5.225,5,2.971,5,3.258
240,1.68438E+12,13,20,-50,1,2.371,10,3.841,5,2.625,10,2.7,5,2.759,7,6.283
240,1.68438E+12,14,-20,80,2,1.311,10,3.692,5,10.938,10,3.512,5,2.441,5,3.459
240,1.68438E+12,15,20,-20,2,1.671,10,2.972,5,4.625,10,8.578,5,2.794,5,2.343
240,1.68438E+12,16,20,-80,1,1.608,14,6.407,5,4.298,10,2.489,5,2.434,7,6.842
240,1.68438E+12,17,-20,20,2,1.36,10,7.826,5,1.842,10,1.927,5,2.032,6,3.078
240,1.68438E+12,18,50,-20,2,1.079,10,6.306,5,2.998,10,2.996,5,2.462,5,2.333
240,1.68438E+12,19,50,-80,1,0.829,16,5.056,5,2.095,10,1.784,5,1.875,7,3.973
240,1.68438E+12,20,-50,50,2,1.307,6,4.472,7,2.527,14,2.89,7,2.311,8,2.317
240,1.68438E+12,21,80,-20,1,2.01,10,7.306,5,4.441,10,2.473,5,1.965,5,2.006
240,1.68438E+12,22,-50,80,1,1.125,10,2.774,5,2.595,10,2.176,5,1.96,5,2.302
240,1.68438E+12,23,-80,80,1,1.178,10,2.575,5,1.663,10,2.84,5,2.509,5,3.951
240,1.68438E+12,24,-50,20,2,1.292,11,2.408,5,1.627,10,2.491,5,3.641,7,3.993
240,1.68438E+12,25,80,20,2,3.691,10,2.641,5,1.878,14,2.914,7,3.196,7,2.709
240,1.68438E+12,26,50,20,2,1.972,16,3.608,7,2.606,18,3.506,8,2.613,9,4.574
240,1.68438E+12,27,80,50,2,1.275,12,3.004,6,2.219,17,3.226,8,2.73,8,2.922
240,1.68438E+12,28,20,80,1,1.344,14,3.292,6,3.607,12,2.305,6,1.961,8,5.447
240,1.68438E+12,29,50,80,1,1.354,16,2.973,5,1.824,10,1.645,5,2.495,5,2.24
240,1.68438E+12,30,20,50,1,0.963,12,2.723,5,1.744,10,1.608,5,1.723,5,2.244
241,1.68438E+12,1,80,50,1,1.926,19,4.009,8,2.876,15,3.923,8,1.496,8,2.675
241,1.68438E+12,2,80,20,1,1.204,20,2.889,7,2.651,12,2.061,8,1.914,9,2.421
241,1.68438E+12,3,50,20,1,1.764,16,3.818,8,1.607,12,3.476,5,1.405,8,1.84
241,1.68438E+12,4,20,80,2,1.645,12,3.12,8,1.765,19,2.452,8,1.829,8,3.168
241,1.68438E+12,5,20,50,2,1.509,12,3.068,8,1.669,16,2.44,8,2.788,8,2.322
241,1.68438E+12,6,50,80,2,1.089,16,4.979,8,2.483,19,2.922,9,2.738,8,2.293
241,1.68438E+12,7,-80,-50,2,1.279,2,3.149,8,2.379,5,4.435,8,2.071,8,2.252
241,1.68438E+12,8,-80,-20,2,1.004,2,2.524,8,1.618,8,5.24,8,1.696,8,2.823
241,1.68438E+12,9,-20,-50,1,1.185,8,3.188,8,2.513,4,2.748,7,1.432,8,2.345
241,1.68438E+12,10,-20,-80,1,1.096,16,1.985,1,2.897,2,3.996,7,1.674,8,2.18
241,1.68438E+12,11,-50,-20,2,1.132,4,2.474,8,1.858,8,2.054,8,1.58,8,3.292
241,1.68438E+12,12,-50,-80,1,2.13,4,2.72,8,1.736,2,3.068,8,2.266,8,2.179
241,1.68438E+12,13,50,-80,1,2.71,16,5.31,8,2.299,2,3.041,8,1.859,8,2.749
241,1.68438E+12,14,20,-20,1,1.116,12,2.37,8,1.445,8,2.089,8,2.198,8,2.193
241,1.68438E+12,15,-50,80,2,1.403,4,5.217,8,1.985,19,2.745,8,2.258,10,2.057
241,1.68438E+12,16,-20,80,2,1.436,8,3.134,8,1.919,19,2.856,8,2,10,2.741
241,1.68438E+12,17,20,-80,1,1.632,12,3.387,8,3.673,2,3.825,8,2.495,10,2.181
241,1.68438E+12,18,20,-50,1,1.744,12,2.827,8,2.267,4,2.8,8,1.879,10,2.57
241,1.68438E+12,19,50,-50,1,1.739,16,2.678,7,1.651,4,2.503,8,1.757,10,2.47
241,1.68438E+12,20,50,-20,1,1.371,16,3.986,7,1.98,8,3.855,8,1.645,10,1.93
241,1.68438E+12,21,80,-80,1,1.482,20,2.507,8,2.564,2,2.588,8,2.079,10,1.776
241,1.68438E+12,22,-20,20,2,1.403,8,3.328,8,2.084,12,5.724,8,1.862,8,2.666
241,1.68438E+12,23,-50,50,2,1.337,4,3.5,8,2.047,16,3.924,8,2.207,8,2.127
241,1.68438E+12,24,-80,20,2,2.737,2,2.983,8,1.936,12,2.356,8,1.685,10,2.065
241,1.68438E+12,25,-80,80,2,0.896,2,2.797,8,1.959,19,2.461,8,4.943,10,1.803
241,1.68438E+12,26,-20,50,2,0.862,8,2.389,9,1.903,16,2.017,8,1.929,8,1.992
241,1.68438E+12,27,80,-20,1,1.08,19,2.727,8,1.838,8,2.766,8,2.269,9,2.78
241,1.68438E+12,28,-50,20,2,1.941,4,2.623,8,2.137,12,3.028,8,1.918,10,2.031
241,1.68438E+12,29,-80,50,2,1.007,2,2.48,8,1.83,16,2.565,8,1.962,10,2.098
241,1.68438E+12,30,80,-50,1,1.232,19,2.487,9,2.973,4,4.074,8,2.612,10,3.105
242,1.68438E+12,1,20,-80,1,1.609,14,6.299,5,1.676,2,2.585,3,1.488,8,3.154
242,1.68438E+12,2,-20,20,2,2.018,9,4.728,4,2.382,13,8.22,5,1.548,7,1.789
242,1.68438E+12,3,-80,80,2,1.001,3,12.424,2,1.394,18,4.922,4,1.509,8,1.723
242,1.68438E+12,4,-80,50,2,1.165,3,3.867,3,1.887,15,4.244,3,1.989,7,3.404
242,1.68438E+12,5,-50,20,2,1.163,4,6.963,4,1.627,11,5.268,4,5.426,7,2.473
242,1.68438E+12,6,50,-50,1,3.396,15,6.185,4,1.415,7,5.757,3,2.343,6,1.957
242,1.68438E+12,7,80,-20,1,1.04,18,6.381,3,3.437,8,4.516,4,1.181,6,1.603
242,1.68438E+12,8,-50,80,2,0.957,3,5.82,3,1.373,19,3.476,5,3.542,7,1.388
242,1.68438E+12,9,50,-20,1,1.114,17,11.167,4,1.675,7,3.756,3,1.906,6,1.208
242,1.68438E+12,10,-80,20,2,0.864,2,45.183,3,1.701,14,4.371,4,2.064,7,1.655
242,1.68438E+12,11,-20,50,2,0.949,10,5.816,3,2.538,16,5.96,3,2.11,6,1.799
242,1.68438E+12,12,20,-50,1,1.107,14,5.015,5,1.388,6,5.777,3,1.787,7,1.63
242,1.68438E+12,13,80,-80,1,0.946,20,5.83,5,1.661,1,2.782,4,1.755,7,2.016
242,1.68438E+12,14,-20,80,2,1,5,6.541,3,1.012,18,3.784,4,2.517,6,2.159
242,1.68438E+12,15,80,-50,1,0.708,19,3.095,4,1.479,4,3.262,2,2.741,8,1.436
242,1.68438E+12,16,20,-20,1,0.698,13,4.742,3,1.921,9,4.082,2,1.64,6,0.918
242,1.68438E+12,17,50,-80,1,0.867,16,5.281,4,1.751,1,2.517,4,1.495,7,1.004
242,1.68438E+12,18,-50,50,2,0.963,5,5.02,4,1.203,17,6.301,4,1.805,6,1.21
242,1.68438E+12,19,-20,-50,1,5.234,6,3.344,4,5.437,4,12.227,3,1.95,6,1.995
242,1.68438E+12,20,-80,-50,2,0.85,2,2.927,2,2.005,4,2.222,4,1.525,6,6.471
242,1.68438E+12,21,-80,-20,2,0.703,2,2.566,1,1.239,8,2.117,4,1.05,6,1.019
242,1.68438E+12,22,-20,-80,1,0.731,8,1.801,3,1.411,1,2.72,5,3.046,7,1.856
242,1.68438E+12,23,-50,-80,1,0.622,3,2.315,3,1.389,1,3.554,4,1.303,7,1.194
242,1.68438E+12,24,-50,-20,2,0.56,5,2.026,4,0.879,10,2.139,4,1.423,8,1.191
242,1.68438E+12,25,50,80,2,0.507,16,5.059,4,1.496,19,3.119,5,1.478,7,1.169
242,1.68438E+12,26,50,20,1,0.578,15,2.826,4,1.067,12,1.743,3,0.824,6,1.333
242,1.68438E+12,27,80,20,1,0.779,18,2.57,3,1.362,14,1.944,3,1.892,6,1.158
242,1.68438E+12,28,80,50,1,0.892,19,2.102,2,1.097,15,5.928,3,1.14,8,1.295
242,1.68438E+12,29,20,80,2,0.961,12,3.534,2,1.318,18,2.379,4,5.328,7,1.359
242,1.68438E+12,30,20,50,2,0.746,11,2.331,3,1.659,14,1.931,4,2.25,7,1.232
243,1.68438E+12,1,50,80,2,4.132,10,4.729,6,2.651,8,6.458,5,4.678,2,10.344
243,1.68438E+12,2,80,20,1,5.445,8,6.32,3,4.478,12,9.411,5,6.486,3,10.206
243,1.68438E+12,3,20,50,2,6.894,4,6.332,5,2.752,8,4.411,5,3.75,4,3.621
243,1.68438E+12,4,20,80,2,3.773,13,5.531,5,3.137,17,7.836,5,4.623,5,4.57
243,1.68438E+12,5,50,20,1,2.267,4,3.878,3,3.572,10,7.108,3,5.984,6,6.363
243,1.68438E+12,6,80,50,1,3.033,17,8.303,4,6.547,14,12.724,3,4.258,6,5.311
243,1.68438E+12,7,-80,-50,2,2.754,4,11.356,5,3.422,5,5.43,5,5.683,5,6.216
243,1.68438E+12,8,-50,-20,1,4.105,6,4.462,5,7.041,10,7.335,3,6.334,5,4.739
243,1.68438E+12,9,-20,-80,1,3.855,7,8.118,5,2.789,10,4.841,1,9.583,6,14.354
243,1.68438E+12,10,-80,-20,2,6.18,4,4.71,5,3.238,4,5.599,3,4.598,6,4.99
243,1.68438E+12,11,-50,-80,1,4.026,6,4.86,4,2.404,4,4.166,3,2.797,4,11.296
243,1.68438E+12,12,-20,-50,2,12.795,6,3.989,4,4.55,10,7.471,4,5.576,3,4.304
243,1.68438E+12,13,80,-20,1,5.86,16,8.915,5,5.019,6,4.654,7,4.341,5,6.255
243,1.68438E+12,14,20,-80,1,4.697,14,5.204,5,7.744,14,27.654,5,9.016,4,6.958
243,1.68438E+12,15,-20,50,1,3.583,6,8.377,3,11.807,16,8.205,4,30.21,0,32.558
243,1.68438E+12,16,-50,50,2,5.152,6,8.544,4,9.039,16,16.192,5,19.573,4,37.602
243,1.68438E+12,17,-50,80,1,2.3,6,6.049,5,3.141,18,9.756,6,5.461,4,9.113
243,1.68438E+12,18,20,-50,1,2.646,16,30.914,3,18.522,4,7.418,5,25.234,5,6.886
243,1.68438E+12,19,20,-20,1,4.035,13,15.136,7,4.353,6,30.042,4,4.632,4,5.946
243,1.68438E+12,20,50,-80,1,2.654,16,25.2,3,4.788,4,6.649,3,2.961,3,4.8
243,1.68438E+12,21,80,-80,1,2.692,16,8.273,5,10.753,4,6.733,3,4.681,5,8.711
243,1.68438E+12,22,80,-50,1,3.284,16,12.907,5,5.462,4,13.02,5,13.667,4,24.8
243,1.68438E+12,23,50,-20,1,3.624,8,5.012,5,3.872,8,7.12,4,4.878,4,3.812
243,1.68438E+12,24,-80,50,1,1.563,6,5.184,5,2.988,6,4.698,5,4.032,2,3.449
243,1.68438E+12,25,-50,20,1,2.532,6,5.833,3,7.189,6,3.512,3,3.184,4,4.568
243,1.68438E+12,26,-20,20,1,2.783,4,8.306,5,3.411,13,7.257,4,5.053,3,4.708
243,1.68438E+12,27,50,-50,2,1.498,6,5.757,5,2.505,10,2.772,6,5.302,3,4.697
243,1.68438E+12,28,-80,20,2,1.877,5,5.064,5,1.67,14,8.514,4,3.635,6,6.352
243,1.68438E+12,29,-80,80,1,4.593,10,3.647,5,3.038,7,9.108,5,4.928,3,9.701
243,1.68438E+12,30,-20,80,1,1.486,6,3.662,3,4.066,8,4.047,3,5.003,4,3.709
244,1.68438E+12,1,80,-50,2,6.495,12,6.92,1,1,9,5.225,8,0.733,1,2.072
244,1.68438E+12,2,80,-20,1,0.892,14,7.412,7,1.589,5,3.184,1,1.25,9,3.697
244,1.68438E+12,3,-80,80,1,2.351,15,6.285,7,1.845,7,2.681,3,2.516,8,1.717
244,1.68438E+12,4,-20,50,2,0.658,9,2.38,0,1.553,10,3.424,1,1.404,8,1.196
244,1.68438E+12,5,-80,50,1,0.507,14,4.158,2,1.047,6,2.084,8,0.999,6,1.314
244,1.68438E+12,6,20,-20,1,0.569,13,9.152,8,1.215,8,1.497,3,1.235,8,1.116
244,1.68438E+12,7,-50,50,2,0.443,2,2.32,10,0.918,10,2.028,0,1.902,2,1.658
244,1.68438E+12,8,20,-50,1,0.499,16,4.993,8,0.861,7,1.796,3,1.262,9,1.083
244,1.68438E+12,9,20,-80,2,0.448,12,7.585,8,0.854,6,1.55,2,3.229,0,3.604
244,1.68438E+12,10,-20,20,2,0.476,8,3.409,7,1.343,15,1.912,10,0.749,8,1.874
244,1.68438E+12,11,-80,20,1,0.465,10,2.252,8,0.872,6,1.706,10,0.739,10,1.503
244,1.68438E+12,12,50,-80,1,0.577,15,23.05,8,1.02,5,2.294,9,1.05,9,1.743
244,1.68438E+12,13,80,-80,1,1.165,14,8.876,8,1.034,12,1.823,7,0.677,0,1.709
244,1.68438E+12,14,-50,80,2,0.478,10,34.439,0,0.828,14,2.105,1,1.22,2,2.987
244,1.68438E+12,15,50,-20,1,0.639,16,10.286,9,1.465,5,2.058,9,0.895,9,0.722
244,1.68438E+12,16,-20,80,1,1.579,16,10.444,1,3.771,4,2.85,7,1.287,0,2.088
244,1.68438E+12,17,-50,20,2,2.622,14,11.001,10,0.938,12,2.138,10,1.274,9,2.109
244,1.68438E+12,18,50,-50,1,0.529,13,5.85,9,0.952,7,1.343,2,0.804,0,2.025
244,1.68438E+12,19,50,20,1,0.791,10,23.502,10,0.862,8,1.748,8,0.825,8,1.377
244,1.68438E+12,20,80,20,2,1.511,6,47.514,9,0.777,13,11.337,8,0.751,0,1.357
244,1.68438E+12,21,80,50,2,1.149,7,3.163,9,1.002,15,1.527,8,0.749,9,1.508
244,1.68438E+12,22,50,80,1,0.691,18,11.404,9,1.192,4,1.869,10,0.599,10,1.073
244,1.68438E+12,23,20,50,2,0.667,14,14.323,9,1.053,18,2.13,10,0.683,3,1.885
244,1.68438E+12,24,20,80,2,0.762,5,2.062,9,0.783,10,1.999,9,0.672,10,0.993
244,1.68438E+12,25,-80,-50,1,0.423,20,3.442,1,1.025,3,1.397,8,0.755,9,2.079
244,1.68438E+12,26,-50,-20,1,1.135,12,5.154,7,0.67,6,1.392,8,0.624,0,2.574
244,1.68438E+12,27,-20,-80,2,0.431,6,11.34,2,1.855,10,3.148,8,0.572,2,1.059
244,1.68438E+12,28,-50,-80,1,0.787,20,3.266,2,1.971,8,1.733,7,0.931,8,1.09
244,1.68438E+12,29,-80,-20,1,0.663,12,2.334,3,0.676,5,1.175,8,0.967,8,0.928
244,1.68438E+12,30,-20,-50,1,0.267,15,11.663,9,0.83,3,1.578,9,1.1,10,2.124
246,1.68438E+12,1,20,-50,1,1.763,16,3.985,8,1.083,4,3.405,8,1.338,9,4.199
246,1.68438E+12,2,-80,50,2,1.637,2,2.64,9,1.255,16,3.069,7,4.097,6,4.255
246,1.68438E+12,3,-50,80,2,0.714,4,2.324,9,1.158,20,2.777,7,1.979,5,1.695
246,1.68438E+12,4,20,-20,1,1.105,16,2.951,6,1.975,8,1.792,10,1.096,6,4.224
246,1.68438E+12,5,-80,20,2,0.658,2,6.112,8,1.42,14,2.414,8,0.944,8,1.667
246,1.68438E+12,6,-50,50,2,0.677,8,2.333,6,1.956,14,1.972,5,1.146,8,2.059
246,1.68438E+12,7,-80,80,2,0.642,0,4.558,9,2.016,20,2.416,9,1.963,5,3.751
246,1.68438E+12,8,50,-20,1,1.103,14,2.713,7,0.968,8,1.67,9,1.259,6,2.083
246,1.68438E+12,9,-20,80,2,0.877,8,2.463,10,1.153,20,2.921,9,1.245,6,1.233
246,1.68438E+12,10,80,-80,1,1.127,20,1.946,8,1.382,0,2.206,10,1.069,8,2.328
246,1.68438E+12,11,-20,20,2,0.863,8,1.913,9,1.022,12,2.04,10,0.968,10,1.016
246,1.68438E+12,12,20,-80,1,0.881,12,2.178,7,0.985,0,3.302,9,1.767,8,1.077
246,1.68438E+12,13,-50,20,2,0.851,4,3.08,9,0.74,13,1.557,8,1.15,8,0.904
246,1.68438E+12,14,80,-20,1,0.852,20,2.556,7,1.021,8,1.704,10,0.84,7,0.853
246,1.68438E+12,15,80,-50,1,0.956,20,2.214,7,1.416,4,2.091,9,0.866,7,1.183
246,1.68438E+12,16,50,-50,1,0.687,16,1.867,7,2.437,4,1.617,8,0.883,8,1.505
246,1.68438E+12,17,-20,50,2,0.793,8,1.741,8,1.258,17,1.653,6,1.085,8,2.933
246,1.68438E+12,18,50,-80,2,0.445,16,1.989,8,1.283,0,1.681,9,1.263,1,2.455
246,1.68438E+12,19,-50,-20,2,1.46,4,2.067,8,1.796,8,3.154,8,1.524,5,2.271
246,1.68438E+12,20,-50,-80,1,0.588,4,2.299,8,0.852,0,3.35,8,1.439,8,1.466
246,1.68438E+12,21,-80,-20,2,0.686,0,2.073,8,1.497,8,1.536,8,1.746,5,2.951
246,1.68438E+12,22,-20,-50,1,0.797,8,1.653,8,1.586,4,1.839,7,1.455,5,1.192
246,1.68438E+12,23,-80,-50,2,0.559,0,2.952,9,2.237,4,1.738,10,1.439,5,1.655
246,1.68438E+12,24,-20,-80,1,0.571,8,2.113,8,1.802,0,1.668,9,0.892,9,1.515
246,1.68438E+12,25,20,50,2,0.546,12,3.052,8,1.197,16,1.768,9,1.323,7,1.333
246,1.68438E+12,26,20,80,2,0.589,13,1.89,7,1.496,20,2.102,8,1.152,8,1.096
246,1.68438E+12,27,50,80,2,1.028,14,1.846,7,2.162,20,1.493,9,0.928,9,1.337
246,1.68438E+12,28,80,50,1,1.458,20,2.67,9,0.906,16,1.629,8,0.859,8,1.648
246,1.68438E+12,29,50,20,1,0.703,16,1.773,7,1.051,12,1.372,7,0.809,6,1.48
246,1.68438E+12,30,80,20,1,1.011,20,1.88,8,0.774,14,2.377,8,0.784,8,1.288
247,1.68438E+12,1,-50,-80,2,2.092,5,4.006,8,1.356,12,5.041,9,1.611,9,1.984
247,1.68438E+12,2,-80,-20,1,0.901,13,2.473,9,1.321,8,4.071,5,1.282,7,1.608
247,1.68438E+12,3,-20,-50,1,1.188,8,1.76,8,1.273,5,2.706,8,1.524,9,2.757
247,1.68438E+12,4,-50,-20,2,1.028,4,2.796,9,1.676,7,2.167,7,2.331,9,1.704
247,1.68438E+12,5,-80,-50,1,0.748,13,2.324,8,1.496,6,3.039,9,1.547,10,1.207
247,1.68438E+12,6,-20,-80,2,1.519,8,1.635,9,1.681,13,2.406,9,0.948,10,1.777
247,1.68438E+12,7,80,20,1,0.741,17,3.02,10,1.388,12,3.324,10,1.835,10,1.49
247,1.68438E+12,8,80,50,1,0.747,18,2.388,10,2.413,15,5.093,9,1.768,10,1.873
247,1.68438E+12,9,20,50,2,0.646,13,2.817,9,1.437,16,3.252,9,1.259,10,1.514
247,1.68438E+12,10,20,80,2,0.587,12,2.367,6,1.689,18,1.925,9,2.639,10,1.243
247,1.68438E+12,11,50,80,2,0.583,14,3.205,8,1.368,19,2.299,9,1.909,10,1.988
247,1.68438E+12,12,50,20,1,0.817,15,5.233,8,1.599,11,2.69,10,1.316,10,1.548
247,1.68438E+12,13,-20,50,2,1.158,7,1.927,8,1.216,16,2.939,8,1.403,10,1.985
247,1.68438E+12,14,-80,20,2,1.127,12,1.665,8,1.07,12,2.706,10,2.505,7,2.191
247,1.68438E+12,15,80,-80,1,0.885,18,2.283,10,1.103,12,2.675,9,1.917,10,1.175
247,1.68438E+12,16,-20,20,2,0.787,18,2.333,9,2.069,13,2.946,9,1.445,8,1.424
247,1.68438E+12,17,-80,50,2,0.674,12,2.181,6,0.982,16,2.172,9,1.165,10,1.277
247,1.68438E+12,18,20,-50,1,0.759,12,2.793,8,1.17,5,2.297,10,1.234,10,2.201
247,1.68438E+12,19,50,-50,1,0.715,16,2.456,8,1.705,6,2.33,9,1.22,10,1.215
247,1.68438E+12,20,80,-20,1,0.695,18,1.744,8,1.283,8,1.859,8,0.998,10,1.433
247,1.68438E+12,21,-50,80,2,0.91,5,2.305,9,1.787,17,1.835,9,1.138,10,1.216
247,1.68438E+12,22,50,-20,1,0.769,16,1.759,9,1.545,9,1.567,8,1.122,10,1.291
247,1.68438E+12,23,20,-20,1,0.707,12,2.042,9,1.212,8,1.747,9,1.432,10,1.222
247,1.68438E+12,24,-80,80,2,0.794,12,1.968,10,1.757,18,1.808,9,1.64,10,1.603
247,1.68438E+12,25,80,-50,1,0.635,17,2.422,10,0.938,5,1.983,9,1.196,10,1.333
247,1.68438E+12,26,-50,50,2,0.698,5,2.176,9,1.517,16,1.757,9,1.806,10,1.257
247,1.68438E+12,27,20,-80,1,0.761,12,1.974,9,1.099,12,1.688,9,1.94,8,1.215
247,1.68438E+12,28,-20,80,2,0.606,7,2.153,8,1.02,18,2.548,9,1.613,10,1.411
247,1.68438E+12,29,-50,20,2,0.634,5,1.829,9,1.627,12,2.194,9,1.206,10,1.206
247,1.68438E+12,30,50,-80,1,0.679,16,2.546,9,1.012,11,1.675,8,1.412,10,0.928
248,1.68438E+12,1,-20,-80,1,1.116,8,3.943,6,1.921,1,4,9,1.735,10,2.954
248,1.68438E+12,2,-50,-20,2,1.778,5,2.513,7,2.386,7,2.942,5,2.736,10,3.069
248,1.68438E+12,3,-50,-80,1,6.054,5,2.01,7,2.321,1,2.054,8,1.542,8,2.016
248,1.68438E+12,4,-20,-50,1,0.904,9,2.637,7,2.221,4,2.105,7,1.701,8,1.526
248,1.68438E+12,5,-80,-50,2,0.913,3,2.923,8,1.827,6,3.705,5,3.377,8,2.326
248,1.68438E+12,6,-80,-20,2,0.696,0,3.189,10,2.135,7,2.668,6,1.874,8,1.55
248,1.68438E+12,7,80,-50,1,0.767,20,4.212,8,2.993,4,1.996,7,1.565,10,1.251
248,1.68438E+12,8,20,-80,1,0.739,14,6.852,6,1.929,1,1.879,7,1.594,10,1.575
248,1.68438E+12,9,-20,50,2,1.181,7,2.219,6,2.296,16,2.928,9,1.417,10,1.105
248,1.68438E+12,10,80,-80,1,0.841,19,3.457,9,1.388,1,1.936,9,1.689,10,1.467
248,1.68438E+12,11,50,-80,1,1.095,17,2.327,8,1.347,3,2.901,7,2.423,9,3.079
248,1.68438E+12,12,-20,80,2,1.028,9,1.963,6,2.531,20,2.459,10,2.218,9,1.404
248,1.68438E+12,13,-50,20,2,1.065,4,2.693,10,2.811,12,2.276,10,1.596,10,2.759
248,1.68438E+12,14,-50,50,2,0.928,3,2.932,8,1.452,15,2.992,8,1.632,9,1.412
248,1.68438E+12,15,20,-20,1,2.644,13,2.291,8,1.774,8,3.628,8,1.933,9,2.927
248,1.68438E+12,16,20,-50,1,0.896,13,3.87,7,1.859,3,2.954,9,1.582,10,1.059
248,1.68438E+12,17,-80,20,2,0.848,0,3.592,10,1.852,11,3.328,7,1.341,10,1.608
248,1.68438E+12,18,-80,80,2,0.617,2,4.044,8,1.885,17,3.943,8,1.33,10,2.373
248,1.68438E+12,19,50,-50,1,1.331,15,2.85,8,1.79,4,2.041,9,1.357,10,2.285
248,1.68438E+12,20,-80,50,2,1.346,1,2.173,8,2.155,20,5.73,0,8.832,10,2.177
248,1.68438E+12,21,50,-20,1,1.242,16,2.685,8,3.059,7,3.847,4,1.289,9,2.05
248,1.68438E+12,22,-50,80,2,0.782,3,3.299,8,3.087,18,2.938,7,1.967,9,1.73
248,1.68438E+12,23,-20,20,2,1.037,8,2.493,10,2.811,13,2.379,8,1.42,10,3.791
248,1.68438E+12,24,80,-20,1,1.379,17,4.17,8,1.799,9,1.905,7,2.22,10,1.762
248,1.68438E+12,25,50,80,2,1.33,15,2.587,5,1.382,19,3.926,8,2.465,10,1.82
248,1.68438E+12,26,80,20,1,0.733,18,3.294,8,1.69,11,3.436,5,1.536,10,1.578
248,1.68438E+12,27,50,20,1,0.81,16,1.605,7,3.214,13,2.774,8,1.692,9,1.724
248,1.68438E+12,28,20,50,2,1.278,13,1.812,8,1.384,14,6.795,8,1.645,9,2.078
248,1.68438E+12,29,20,80,2,0.551,12,4.293,4,2.507,19,3.469,9,2.273,10,1.076
248,1.68438E+12,30,80,50,1,0.993,20,1.927,3,2.662,15,5.38,8,1.266,10,2.934
249,1.68438E+12,1,-50,20,2,2.61,7,5.845,4,2.152,13,3.165,4,1.725,8,3.689
249,1.68438E+12,2,80,-20,1,1.134,18,2.365,5,2.748,8,2.249,4,2.406,8,2.779
249,1.68438E+12,3,-20,50,2,1.131,8,3.541,3,2.679,14,2.661,4,1.583,6,2.467
249,1.68438E+12,4,-20,20,2,1.021,8,1.863,2,2.783,15,2.326,2,2.182,8,2.859
249,1.68438E+12,5,50,-80,1,1.349,14,1.816,4,3.135,2,6.685,3,4.023,6,3.679
249,1.68438E+12,6,-50,50,2,0.861,7,6.556,2,2.646,13,2.119,5,3.029,7,2.147
249,1.68438E+12,7,80,-50,1,1.062,18,2.928,6,2.798,7,2.613,3,2.654,8,2.257
249,1.68438E+12,8,80,-80,1,0.966,18,2.428,6,3.007,2,2.046,5,1.662,8,3.107
249,1.68438E+12,9,-80,20,2,1.83,2,2.264,5,3.846,13,2.054,5,1.965,7,2.307
249,1.68438E+12,10,20,-80,1,1.086,13,2.007,4,4.287,2,1.942,4,2.551,7,4.436
249,1.68438E+12,11,20,-20,1,1.044,13,4.152,4,2.815,8,2.765,3,1.487,6,3.379
249,1.68438E+12,12,20,-50,1,0.918,13,1.764,4,2.303,7,2.862,3,3.471,7,3.233
249,1.68438E+12,13,-50,80,2,1.102,7,8.171,4,2.581,18,2.512,8,2.381,9,3.004
249,1.68438E+12,14,50,-50,1,1.031,13,3.542,4,4.119,7,1.982,2,3.358,7,3.931
249,1.68438E+12,15,50,-20,1,0.965,13,2.067,4,1.886,8,1.63,3,7.511,7,4.923
249,1.68438E+12,16,-80,80,2,0.982,2,2.317,7,2.807,18,2.311,9,1.813,9,2.323
249,1.68438E+12,17,-80,50,2,2.477,2,2.055,5,4.167,13,1.975,5,1.135,6,2.922
249,1.68438E+12,18,-20,80,2,0.894,8,3.107,3,3.487,18,2.31,8,1.535,9,2.091
249,1.68438E+12,19,50,80,2,0.893,13,2.65,3,3.733,18,2.012,8,1.983,9,1.691
249,1.68438E+12,20,50,20,1,1.662,13,1.735,3,2.397,11,15.565,2,3.933,5,3.402
249,1.68438E+12,21,20,80,2,0.814,11,3.279,1,4.127,18,2.069,9,2.078,9,2.115
249,1.68438E+12,22,80,20,1,1.078,18,1.902,9,2.607,11,2.397,2,2.382,9,2.146
249,1.68438E+12,23,20,50,2,1.03,11,2.193,2,3.175,13,1.83,4,4.303,6,2.658
249,1.68438E+12,24,80,50,1,2.079,18,2.217,6,3.598,13,1.822,3,4.335,7,3.635
249,1.68438E+12,25,-50,-80,1,2.765,8,2.872,3,1.431,2,2.598,3,3.359,5,4.499
249,1.68438E+12,26,-20,-50,2,1.886,8,1.662,3,1.933,8,2.502,4,1.839,4,5.819
249,1.68438E+12,27,-80,-20,2,1.399,2,2.915,4,2.838,8,2.341,4,2.111,5,3.492
249,1.68438E+12,28,-20,-80,1,1.581,7,2.333,4,4.589,2,6.693,4,2.215,5,3.851
249,1.68438E+12,29,-50,-20,1,2.831,8,2.264,4,2.037,8,1.934,3,1.462,3,3.171
249,1.68438E+12,30,-80,-50,2,1.263,2,2.066,4,2.502,7,3.334,3,2.471,5,3.403
250,1.68438E+12,1,-50,-80,1,2.91,12,2.384,6,1.176,12,1.255,6,1.415,7,3.654
250,1.68438E+12,2,-50,-20,1,1.101,15,2.772,8,1.435,6,1.7,3,1.127,7,2.375
250,1.68438E+12,3,-80,-20,2,2.454,13,1.369,0,2.454,7,1.723,4,1.358,7,2.444
250,1.68438E+12,4,-20,-50,1,0.989,6,1.838,3,1.374,9,1.519,4,1.331,5,2.051
250,1.68438E+12,5,-80,-50,1,1.471,13,1.877,1,2.792,9,2.47,4,1.186,5,2.804
250,1.68438E+12,6,-20,-80,1,0.81,9,1.458,3,1.929,5,1.603,3,1.617,3,1.522
250,1.68438E+12,7,-80,20,2,0.832,7,1.523,3,1.266,13,3.467,6,1.202,6,3.195
250,1.68438E+12,8,50,-50,1,1.618,14,2.579,7,1.386,7,1.813,4,1.031,6,1.654
250,1.68438E+12,9,20,-50,1,0.928,13,1.588,6,1.316,13,1.257,7,1.139,7,1.657
250,1.68438E+12,10,-20,20,2,2.198,7,4.608,4,10.931,13,2.419,7,1.087,7,1.417
250,1.68438E+12,11,80,-20,1,9.514,20,3.241,8,1.829,12,1.885,2,2.448,10,2.413
250,1.68438E+12,12,-50,80,2,1.516,6,3.962,4,1.476,18,4.168,8,2.445,8,2.416
250,1.68438E+12,13,-80,80,2,1.693,1,2.728,5,4.593,20,2.298,9,1.421,5,2.251
250,1.68438E+12,14,-80,50,2,1.205,4,2.127,6,6.394,16,2.368,7,1.537,7,1.501
250,1.68438E+12,15,50,-20,1,0.845,15,1.759,7,1.708,14,1.509,3,13.048,7,1.867
250,1.68438E+12,16,80,-50,1,0.955,20,2.2,9,1.82,7,2.094,4,1.078,8,1.419
250,1.68438E+12,17,-20,80,2,1.185,6,3.234,6,1.811,20,2.166,8,2.138,7,1.437
250,1.68438E+12,18,80,-80,1,0.829,17,2.119,9,1.283,15,1.328,1,2.797,9,2.187
250,1.68438E+12,19,-50,20,2,3.632,5,8.621,6,2.352,15,1.711,8,1.161,6,1.788
250,1.68438E+12,20,-20,50,2,1.356,5,3.708,7,1.296,18,2.027,8,1.564,8,1.501
250,1.68438E+12,21,50,-80,1,0.955,15,1.539,8,1.182,2,1.666,8,1.202,7,2.386
250,1.68438E+12,22,-50,50,2,0.781,13,5.131,0,2.17,17,2.285,3,2.149,7,1.559
250,1.68438E+12,23,20,-80,1,0.934,15,1.592,8,2.589,5,1.823,7,1.152,6,3.075
250,1.68438E+12,24,20,-20,1,0.869,15,1.719,8,1.685,4,1.708,7,1.608,7,2.317
250,1.68438E+12,25,80,50,1,0.886,19,2.383,8,1.762,16,2.273,6,1.319,9,1.396
250,1.68438E+12,26,20,50,2,0.857,12,5.523,7,2.384,14,1.529,8,1.794,7,1.662
250,1.68438E+12,27,20,80,2,0.726,17,1.674,9,1.034,19,2.27,9,1.531,9,1.699
250,1.68438E+12,28,50,20,1,0.694,14,1.257,8,1.168,14,2.395,7,1.194,9,2.14
250,1.68438E+12,29,50,80,2,0.727,15,1.608,7,0.985,19,1.922,8,1.033,7,1.818
250,1.68438E+12,30,80,20,2,0.911,14,1.698,8,0.924,16,1.712,8,0.994,7,1.777
251,1.68438E+12,1,-80,-50,2,1.246,2,2.889,8,2.42,5,3.686,8,2.093,10,3.644
251,1.68438E+12,2,-20,-50,1,1.389,8,4.729,8,1.984,5,2.525,8,1.604,8,3.402
251,1.68438E+12,3,-20,-80,1,1.3,8,2.091,8,2.319,2,2.86,8,2.249,10,2.181
251,1.68438E+12,4,-50,-20,2,1.069,5,2.617,8,2.277,8,2.031,8,3.16,8,1.434
251,1.68438E+12,5,-80,-20,2,1.101,2,1.885,8,1.039,8,2.008,8,1.915,10,1.683
251,1.68438E+12,6,-50,-80,1,3.44,5,3.192,8,1.036,2,2.593,8,1.185,8,1.327
251,1.68438E+12,7,50,-80,1,0.804,15,3.499,8,1.906,2,3.362,8,1.954,10,1.225
251,1.68438E+12,8,80,-50,1,1.014,18,4.469,8,2.726,5,3.417,8,1.906,10,1.079
251,1.68438E+12,9,20,-80,1,0.658,12,5.319,7,3.255,2,2.232,8,1.232,10,1.356
251,1.68438E+12,10,50,-20,1,1.17,15,3.791,8,2.798,8,3.481,8,1.93,10,1.852
251,1.68438E+12,11,20,-50,1,1.54,12,2.322,7,2.743,5,2.201,8,2.558,10,1.359
251,1.68438E+12,12,-20,20,2,1.037,8,3.102,8,1.76,12,1.757,6,4.442,8,5.418
251,1.68438E+12,13,-80,80,2,1.153,2,3.02,8,1.248,18,2.158,8,1.324,10,2.776
251,1.68438E+12,14,50,-50,1,0.893,15,2.228,8,3.186,5,2.55,8,1.489,10,1.403
251,1.68438E+12,15,-20,80,2,1.269,8,8.646,8,1.752,18,2.146,8,1.922,10,1.358
251,1.68438E+12,16,-50,50,2,0.878,5,1.866,8,1.17,15,1.774,8,1.481,10,1.185
251,1.68438E+12,17,-50,80,2,0.846,5,3.209,7,6.674,18,2.379,8,1.54,10,1.167
251,1.68438E+12,18,20,-20,1,0.769,12,2.317,7,4.768,8,2.162,8,1.17,7,2.334
251,1.68438E+12,19,80,-20,1,0.581,18,11.513,8,1.705,8,2.426,8,1.72,10,1.613
251,1.68438E+12,20,80,-80,1,0.889,18,2.119,8,1.877,2,1.991,8,1.217,10,1.38
251,1.68438E+12,21,-80,50,2,0.736,2,1.855,8,1.75,15,1.939,8,1.511,10,1.156
251,1.68438E+12,22,-20,50,2,0.837,8,2.394,8,1.742,15,2.65,8,2.673,10,1.187
251,1.68438E+12,23,-50,20,2,0.936,5,3.154,8,1.332,12,2.357,7,2.084,8,1.65
251,1.68438E+12,24,-80,20,2,0.645,2,1.865,8,1.905,12,1.765,7,1.991,10,1.278
251,1.68438E+12,25,20,80,2,0.629,12,1.794,7,1.596,18,1.58,8,1.852,10,1.31
251,1.68438E+12,26,50,20,1,0.991,15,2.075,8,1.858,12,1.595,7,2.335,9,3.599
251,1.68438E+12,27,80,50,1,0.962,18,2.393,8,1.992,15,3.154,8,1.146,9,1.667
251,1.68438E+12,28,50,80,2,0.613,15,2.504,8,5.246,18,1.997,8,2.27,9,1.217
251,1.68438E+12,29,20,50,2,0.721,12,1.756,7,2.721,15,1.913,8,0.858,9,1.591
251,1.68438E+12,30,80,20,1,1.023,18,1.938,8,2.114,12,2.078,7,3.347,10,1.31
253,1.68438E+12,1,-80,80,2,0.898,0,3.569,5,1.099,5,6.245,3,2.089,7,3.634
253,1.68438E+12,2,20,-80,1,0.968,8,4.117,9,2.523,0,2.439,9,1.442,10,2.394
253,1.68438E+12,3,50,-80,1,0.797,4,2.425,8,2.284,1,1.619,10,0.828,10,1.971
253,1.68438E+12,4,-50,50,1,0.782,13,2.799,3,1.892,5,1.979,9,1.162,9,1.455
253,1.68438E+12,5,20,-50,2,0.525,8,1.662,10,2.332,13,2.125,6,1.677,9,1.192
253,1.68438E+12,6,20,-20,1,0.764,8,3.202,8,2.635,4,7.858,2,2.426,8,1.938
253,1.68438E+12,7,80,-20,2,3.454,16,5.406,5,5.154,10,17.21,5,0.814,2,1.735
253,1.68438E+12,8,80,-50,2,0.504,17,3.042,0,1.79,12,1.666,4,2.187,2,1.546
253,1.68438E+12,9,50,-20,2,0.545,5,2.981,8,1.996,13,2.375,8,1.873,6,1.387
253,1.68438E+12,10,-50,20,1,0.606,12,2.354,4,1.704,8,2.242,10,2.148,10,1.489
253,1.68438E+12,11,-80,50,2,0.717,2,2.785,10,1.31,5,1.518,8,1.384,9,1.202
253,1.68438E+12,12,80,-80,1,0.701,18,2.336,8,1.647,2,2.178,10,1.25,9,1.152
253,1.68438E+12,13,-50,80,2,0.461,12,3.024,8,1.628,18,2.594,9,0.882,10,1.336
253,1.68438E+12,14,-80,20,2,1.544,2,1.937,10,1.826,9,1.831,7,1.75,10,2.082
253,1.68438E+12,15,50,-50,2,0.512,5,2.887,8,1.404,13,1.97,8,1.063,9,1.151
253,1.68438E+12,16,-20,50,1,1.04,14,2.826,9,1.378,4,1.631,8,1.113,8,2.202
253,1.68438E+12,17,-20,20,1,0.854,14,3.926,8,1.699,8,1.472,10,1.185,10,1.245
253,1.68438E+12,18,-20,80,2,0.573,13,3.263,6,0.872,18,1.349,10,0.817,9,1.66
253,1.68438E+12,19,-20,-80,1,0.671,14,1.654,3,3.57,2,1.521,10,0.95,10,7.25
253,1.68438E+12,20,-80,-50,2,0.994,2,31.19,10,2.756,13,2.282,8,1.542,10,1.955
253,1.68438E+12,21,-50,-20,2,2.467,13,3.084,9,2.337,13,2.406,8,1.887,3,3.608
253,1.68438E+12,22,-50,-80,1,0.638,12,2.657,9,1.329,2,1.944,10,0.951,10,1.462
253,1.68438E+12,23,-80,-20,2,1.412,1,28.219,10,1.779,14,1.473,9,1.653,9,2.096
253,1.68438E+12,24,-20,-50,2,1.373,15,2.322,7,1.377,12,2.053,8,1.389,6,16.022
253,1.68438E+12,25,20,80,2,1.03,8,1.299,9,3.152,17,2.576,8,0.874,10,1.171
253,1.68438E+12,26,50,80,2,1.199,4,1.537,9,1.702,18,1.679,9,2.004,10,1.633
253,1.68438E+12,27,50,20,2,3.13,5,6.647,7,2.063,8,5.633,9,2.189,9,2.097
253,1.68438E+12,28,20,50,1,1.009,8,1.988,9,2.087,4,1.712,9,2.144,10,2.944
253,1.68438E+12,29,80,20,1,1.059,18,1.624,9,4.917,7,1.386,7,4.409,10,1.615
253,1.68438E+12,30,80,50,1,0.879,19,1.7,10,1.298,4,1.523,9,2.725,10,2.158
254,1.68438E+12,1,-20,-80,1,3.951,8,10.373,9,1.92,2,5.7,9,2.926,10,3.888
254,1.68438E+12,2,-50,-80,1,0.766,5,10.506,8,2.773,1,2.86,8,2.55,10,2.885
254,1.68438E+12,3,-20,-50,1,1.081,7,3.242,8,6.852,4,3.181,8,4.826,10,1.684
254,1.68438E+12,4,-80,-50,2,1.236,1,2.736,9,2.277,4,3.319,6,2.332,10,3.356
254,1.68438E+12,5,-80,-20,2,0.729,0,7.056,9,1.372,7,2.232,9,1.287,10,1.414
254,1.68438E+12,6,-50,-20,2,0.652,5,3.091,9,1.86,9,2.719,8,1.297,10,1.318
254,1.68438E+12,7,-50,20,2,0.85,7,2.188,9,1.83,12,8.268,9,2.506,10,1.27
254,1.68438E+12,8,50,-80,1,2.166,18,3.443,9,1.893,2,3.287,9,1.536,10,1.683
254,1.68438E+12,9,-20,80,2,0.859,8,4.413,9,1.401,18,17.132,9,1.68,10,1.808
254,1.68438E+12,10,-80,80,2,0.961,1,3.14,8,1.28,19,2.656,9,1.075,10,1.28
254,1.68438E+12,11,-50,80,2,0.647,5,2.53,8,0.942,20,2.296,10,2.778,10,1.204
254,1.68438E+12,12,-80,20,2,1.286,3,3.888,9,1.161,13,13.94,7,1.596,10,2.51
254,1.68438E+12,13,50,-50,1,1.183,18,6.277,8,1.527,6,2.688,8,1.089,10,1.462
254,1.68438E+12,14,-20,20,2,0.702,8,5.635,7,2.651,12,3.127,8,0.866,10,1.136
254,1.68438E+12,15,-20,50,2,0.723,7,1.953,7,0.89,16,2.445,9,1.621,10,1.142
254,1.68438E+12,16,20,-80,1,1.075,12,3.519,7,1.663,2,3.73,8,1.206,10,1.335
254,1.68438E+12,17,50,-20,1,1.269,15,3.534,9,1.403,9,2.884,8,3.055,10,1.9
254,1.68438E+12,18,20,-20,1,1.801,13,4.499,8,1.969,8,3.403,6,1.636,10,1.31
254,1.68438E+12,19,20,-50,1,0.835,11,3.068,8,1.461,5,2.238,8,0.932,10,1.549
254,1.68438E+12,20,-50,50,2,0.963,4,2.262,9,2.089,17,2.491,9,1.515,10,1.485
254,1.68438E+12,21,80,-80,1,1.064,19,2.871,9,1.291,2,3.44,9,1.515,10,1.193
254,1.68438E+12,22,80,-20,1,0.867,18,2.149,6,4.167,8,2.735,7,2.003,10,1.462
254,1.68438E+12,23,80,-50,1,0.779,18,6.122,8,1.411,5,3.709,8,1.084,10,1.614
254,1.68438E+12,24,-80,50,2,1.087,3,2.288,8,1.221,15,2.992,7,1.57,10,1.803
254,1.68438E+12,25,20,50,2,0.704,13,4.703,7,1.062,16,2.552,8,1.167,10,1.246
254,1.68438E+12,26,80,20,1,1.154,20,2.106,8,1.693,13,2.836,8,1.992,10,1.482
254,1.68438E+12,27,50,80,2,0.603,15,2.297,6,2.967,17,2.797,9,1.453,10,1.257
254,1.68438E+12,28,80,50,1,0.81,18,2.595,7,0.907,16,2.158,8,1.287,10,1.135
254,1.68438E+12,29,50,20,1,0.929,15,2.433,7,0.925,12,1.954,7,1.413,10,1.386
254,1.68438E+12,30,20,80,2,0.667,13,2.574,8,1.071,19,1.702,8,1.23,10,1.072
256,1.68438E+12,1,-80,-20,2,1.369,1,22.766,3,4.854,9,10.527,4,3.63,7,5.163
256,1.68438E+12,2,-80,-50,2,1.94,2,5.903,1,7.605,4,9.143,1,5.676,5,3.719
256,1.68438E+12,3,-20,-50,1,2.133,10,4.549,1,2.842,6,7.387,1,3.562,2,3.527
256,1.68438E+12,4,-20,-80,2,1.181,12,5.972,0,3.589,10,4.312,0,4.146,0,2.834
256,1.68438E+12,5,-50,-20,1,0.924,16,6.799,0,3.161,3,9.677,0,3.167,0,3.285
256,1.68438E+12,6,-50,-80,2,1.381,12,5.502,0,4.963,18,7.088,0,2.783,0,2.666
256,1.68438E+12,7,80,20,1,1.769,19,12.242,0,3.298,12,3.641,0,3.325,0,3.054
256,1.68438E+12,8,50,20,1,1.569,16,4.025,0,3.616,14,5.299,0,3.428,0,3.647
256,1.68438E+12,9,80,50,1,1.007,20,3.936,0,3.722,15,7.415,1,2.817,0,3.252
256,1.68438E+12,10,20,80,2,1.747,13,3.244,0,2.818,19,4.429,0,3.262,0,4.627
256,1.68438E+12,11,50,80,2,0.987,16,3.937,0,2.536,19,4.082,0,2.756,0,3.109
256,1.68438E+12,12,20,50,2,1.632,11,3.507,0,3.123,16,3.296,0,4.889,0,2.652
256,1.68438E+12,13,80,-50,1,1.105,17,5.377,0,2.603,2,7.914,1,2.733,1,3.083
256,1.68438E+12,14,-20,50,2,0.912,7,3.003,1,3.034,16,3.03,1,2.684,1,2.42
256,1.68438E+12,15,50,-50,1,0.94,14,3.758,2,2.015,4,5.103,1,2.902,2,2.709
256,1.68438E+12,16,-80,50,2,1.266,1,4.547,1,4.918,14,6.521,2,2.861,2,2.514
256,1.68438E+12,17,-20,80,2,1.276,7,3.041,0,2.574,19,4.146,2,2.647,2,3.94
256,1.68438E+12,18,-50,20,2,1.386,3,5.194,1,3.125,12,4.013,1,6.037,2,2.484
256,1.68438E+12,19,20,-80,1,1.188,13,3.529,1,3.669,1,3.244,1,3.384,2,3.208
256,1.68438E+12,20,-20,20,2,1.162,7,5.989,2,2.518,12,3.143,2,1.995,3,2.611
256,1.68438E+12,21,80,-80,1,1.381,17,3.502,2,2.273,2,3.737,2,2.136,3,2.407
256,1.68438E+12,22,20,-20,1,1.266,13,4.043,1,4.095,7,3.603,2,2.439,2,7.153
256,1.68438E+12,23,50,-80,1,1.596,14,5.54,2,2.596,3,2.787,2,2.637,2,5.891
256,1.68438E+12,24,20,-50,1,1.825,12,3.398,2,2.955,6,4.019,2,3.435,2,3.334
256,1.68438E+12,25,-50,80,2,1.782,5,4.44,2,1.964,17,4.637,3,3.241,2,2.514
256,1.68438E+12,26,-80,80,2,1.145,0,5.337,3,2.039,20,3.595,5,2.968,4,2.772
256,1.68438E+12,27,-50,50,2,1.176,5,2.91,3,3.481,14,4.284,2,3.209,4,2.367
256,1.68438E+12,28,50,-20,1,1.215,13,6.348,2,3.176,9,3.181,1,3.043,2,2.413
256,1.68438E+12,29,80,-20,1,1.829,18,4.414,3,2.906,9,3.371,3,2.678,4,2.611
256,1.68438E+12,30,-80,20,2,2.108,3,4.293,3,8.458,11,4.076,2,2.763,3,2.834
257,1.68438E+12,1,-50,-20,2,1.749,6,3.482,9,1.955,8,1.966,9,0.817,10,2.859
257,1.68438E+12,2,-20,-80,1,1.266,8,1.611,9,1.138,1,1.8,10,0.957,10,2.764
257,1.68438E+12,3,-50,-80,1,1.003,4,1.77,10,1.483,0,1.665,10,0.864,9,1.849
257,1.68438E+12,4,-20,-50,1,0.993,7,3.622,9,1.033,5,2.141,10,1.186,10,1.818
257,1.68438E+12,5,-80,-20,2,1.024,2,1.78,10,1.591,8,1.918,10,0.916,10,1.525
257,1.68438E+12,6,-80,-50,2,1.008,2,1.813,9,1.344,4,1.448,9,1.171,10,1.586
257,1.68438E+12,7,50,20,1,1.181,14,4.421,8,1.607,12,2.687,9,1.256,9,1.608
257,1.68438E+12,8,20,80,2,0.641,12,1.548,10,0.912,18,1.617,9,1.278,10,5.337
257,1.68438E+12,9,80,50,1,0.762,18,2.89,9,1.093,14,1.836,9,0.995,10,2.048
257,1.68438E+12,10,50,80,2,0.97,14,1.507,9,0.98,18,2.039,9,1.297,10,4.108
257,1.68438E+12,11,20,50,2,0.58,12,1.562,9,1.466,14,2.222,9,0.846,10,1.677
257,1.68438E+12,12,80,20,1,1.313,17,2.241,10,0.836,12,2.424,9,1.319,10,1.474
257,1.68438E+12,13,20,-80,1,0.799,12,2.239,9,0.883,1,2.184,9,1.863,10,1.692
257,1.68438E+12,14,50,-50,1,0.774,14,1.829,9,1.282,5,1.581,9,1.674,10,1.556
257,1.68438E+12,15,20,-20,1,0.635,12,3.368,9,1.228,7,2.18,9,1.426,10,1.653
257,1.68438E+12,16,-50,80,2,0.558,6,2.267,9,1.17,17,2.174,9,1.112,9,1.492
257,1.68438E+12,17,-80,80,2,1.018,2,1.638,9,1.694,18,2.991,9,1.112,10,1.56
257,1.68438E+12,18,-20,50,2,0.566,8,1.565,9,1.269,14,1.623,10,0.919,10,0.962
257,1.68438E+12,19,50,-80,1,0.886,14,2.983,9,1.246,1,1.761,9,1.571,10,1.696
257,1.68438E+12,20,80,-20,1,0.919,18,1.902,10,1.089,8,1.477,9,1.373,10,1.459
257,1.68438E+12,21,-50,20,2,0.849,5,1.595,9,0.787,12,2.448,9,0.999,9,2.773
257,1.68438E+12,22,80,-80,1,1.033,18,2.063,10,2.01,1,1.543,9,1.131,10,2.005
257,1.68438E+12,23,-50,50,2,0.724,5,1.72,10,1.513,14,1.937,9,1.307,10,1.598
257,1.68438E+12,24,50,-20,1,0.925,15,1.967,10,0.787,8,1.583,10,1.009,10,1.231
257,1.68438E+12,25,-80,20,2,0.965,2,2.086,9,1.791,12,1.945,10,0.909,10,0.891
257,1.68438E+12,26,20,-50,1,0.788,12,1.795,9,0.832,4,2.459,9,0.951,10,1.12
257,1.68438E+12,27,-20,20,2,0.618,8,2.105,9,1.374,12,1.525,10,1.397,10,1.855
257,1.68438E+12,28,80,-50,1,0.763,17,2.292,10,0.881,5,1.622,9,1.056,10,1.608
257,1.68438E+12,29,-80,50,2,0.537,2,3.956,10,1.698,14,12.706,10,1.905,10,1.191
257,1.68438E+12,30,-20,80,2,0.9,8,2.381,9,1.117,18,2.638,9,1.179,10,1.106
259,1.68438E+12,1,-20,-50,2,1.908,4,3.797,2,3.567,15,3.197,3,2.246,6,3.917
259,1.68438E+12,2,-50,-80,1,1.837,15,5.106,2,2.319,6,5.392,2,1.802,7,3.527
259,1.68438E+12,3,-80,-20,1,2.049,6,2.964,1,2.238,4,3.741,2,2.196,1,2.935
259,1.68438E+12,4,-20,-80,2,2.261,6,2.673,1,3.389,6,5.733,1,2.586,0,3.582
259,1.68438E+12,5,-50,-20,1,1.362,15,2.874,1,3.132,5,4.102,1,2.183,7,3.759
259,1.68438E+12,6,-80,-50,2,0.981,6,2.394,1,1.596,15,3.157,1,2.834,7,3.319
259,1.68438E+12,7,80,-80,1,1.388,18,3.459,1,2.451,6,3.183,1,7.423,7,3.665
259,1.68438E+12,8,20,-80,1,1.458,12,3.024,1,1.612,6,2.468,1,4.595,7,1.969
259,1.68438E+12,9,-20,50,2,1.33,6,14.939,1,2.227,14,4.067,0,2.977,5,3.165
259,1.68438E+12,10,-50,80,2,0.967,15,2.246,1,11.294,18,3.458,1,2.35,1,3.13
259,1.68438E+12,11,-50,20,1,4.262,15,2.614,1,1.717,13,4.143,2,2.454,6,4.572
259,1.68438E+12,12,-20,80,2,1.131,6,2.807,1,2.007,16,2.394,2,3.522,6,2.378
259,1.68438E+12,13,-20,20,2,1.543,6,2.268,1,2.823,12,4.424,6,3.206,6,4.305
259,1.68438E+12,14,50,-50,2,2.927,15,6.791,1,26.073,15,3.111,1,3.686,0,2.951
259,1.68438E+12,15,50,-80,1,1.51,17,5.834,1,2.745,5,2.762,1,3.062,7,2.685
259,1.68438E+12,16,20,-20,1,1.005,12,8.011,1,8.93,5,2.629,1,3.466,7,3.194
259,1.68438E+12,17,80,-50,1,1.262,20,5.822,2,5.026,15,2.569,1,2.443,6,2.283
259,1.68438E+12,18,20,-50,2,1.009,10,4.065,1,3.151,15,2.717,1,2.109,5,1.709
259,1.68438E+12,19,80,-20,1,1.121,19,5.246,1,2.8,5,4.201,1,6.222,7,2.601
259,1.68438E+12,20,-80,80,2,0.813,5,3.543,1,2.499,16,2.454,1,2.295,7,12.47
259,1.68438E+12,21,50,-20,1,1.231,13,2.747,1,2.302,5,3.153,1,2.577,1,3.614
259,1.68438E+12,22,-80,50,2,0.678,5,5.331,1,2.787,15,4.227,1,1.948,7,2.135
259,1.68438E+12,23,-80,20,2,1.374,7,3.581,1,3.424,12,13.413,1,1.891,7,2.793
259,1.68438E+12,24,-50,50,1,1.193,15,2.341,1,2.287,13,4.896,1,3.036,3,9.493
259,1.68438E+12,25,80,50,1,0.838,18,7.424,1,2.345,15,6.033,1,2.224,5,1.476
259,1.68438E+12,26,20,80,2,1.906,13,3.172,1,3.295,16,2.491,1,2.888,3,4.752
259,1.68438E+12,27,50,20,1,1.244,14,3.376,1,2.411,11,2.382,1,2.433,5,2.207
259,1.68438E+12,28,50,80,2,1.349,14,2.837,1,1.766,18,2.476,1,2.044,1,2.651
259,1.68438E+12,29,80,20,1,0.898,19,6.778,1,2.042,11,3.32,1,2.131,4,3.235
259,1.68438E+12,30,20,50,2,1.395,11,2.917,1,2.629,14,30.645,1,2.886,3,1.741
260,1.68438E+12,1,-80,-20,1,2.823,4,2.907,8,1.257,3,2.718,8,3.085,9,1.934
260,1.68438E+12,2,-80,-50,2,0.507,6,2.519,8,1.687,17,1.746,8,0.985,8,3.237
260,1.68438E+12,3,-50,-20,2,0.502,17,2.153,8,1.423,4,1.977,8,1.435,2,4.236
260,1.68438E+12,4,-50,-80,1,0.89,18,2.199,8,1.169,4,2.243,8,1.693,9,1.664
260,1.68438E+12,5,-20,-50,2,0.953,4,2.254,8,1.345,17,2.459,7,1.705,8,2.177
260,1.68438E+12,6,-20,-80,2,1.215,5,3.304,7,1.156,5,1.557,8,1.322,8,1.477
260,1.68438E+12,7,-80,80,2,0.875,5,2.749,8,1.071,17,1.987,8,1.017,8,1.459
260,1.68438E+12,8,50,-20,1,0.975,17,1.819,8,0.913,6,2.372,8,1.361,8,2.065
260,1.68438E+12,9,80,-50,1,0.979,17,3.298,8,1.813,16,1.949,7,1.083,8,1.356
260,1.68438E+12,10,20,-20,1,0.631,15,2.521,8,1.183,4,2.142,8,0.817,8,2.279
260,1.68438E+12,11,20,-50,1,0.703,16,1.84,7,1,14,1.878,7,0.89,7,3.044
260,1.68438E+12,12,-50,50,2,2.046,15,2.236,7,2.474,14,4.175,7,1.641,8,2.058
260,1.68438E+12,13,-80,50,2,1.448,4,2.725,7,1.032,16,2.862,7,2.09,8,1.626
260,1.68438E+12,14,-80,20,2,1.255,3,2.745,7,1.133,16,2.504,7,1.749,7,1.917
260,1.68438E+12,15,-20,80,2,0.768,3,2.306,7,1.444,14,1.656,7,1.156,8,1.958
260,1.68438E+12,16,-20,20,2,2.145,3,2.048,7,1.254,15,1.428,8,1.106,8,2.186
260,1.68438E+12,17,-20,50,2,1.08,4,2.258,7,0.862,16,1.468,7,2.4,8,1.481
260,1.68438E+12,18,20,-80,1,0.817,16,2.505,7,1.529,5,1.971,7,2.868,8,1.805
260,1.68438E+12,19,80,-20,1,0.925,17,1.637,8,1.576,3,1.655,7,0.999,7,1.886
260,1.68438E+12,20,80,-80,1,0.657,14,1.548,8,1.742,2,2.43,8,1.004,7,1.715
260,1.68438E+12,21,-50,20,2,0.697,15,1.492,7,1.023,16,2.3,8,1.156,7,1.334
260,1.68438E+12,22,50,-80,1,0.817,15,1.826,7,1.846,5,3.963,8,1.011,8,2.559
260,1.68438E+12,23,50,-50,1,0.91,17,1.545,8,1.396,13,1.875,8,1.763,7,1.995
260,1.68438E+12,24,-50,80,2,0.854,15,1.938,7,0.891,14,2.024,7,1.066,7,1.868
260,1.68438E+12,25,20,50,1,1.242,15,1.389,7,0.969,15,2.706,7,1.009,7,1.768
260,1.68438E+12,26,50,80,2,1.605,14,2.408,7,1.311,16,3.574,8,2.279,8,1.844
260,1.68438E+12,27,80,20,1,1.128,14,1.96,7,1.018,15,1.705,7,1.248,7,1.221
260,1.68438E+12,28,80,50,1,0.723,16,2.307,8,1.089,15,1.38,8,0.934,8,2.034
260,1.68438E+12,29,50,20,1,2.306,15,3.032,7,0.952,15,1.655,8,2.254,8,2.322
260,1.68438E+12,30,20,80,2,1.025,15,2.198,8,1.021,15,1.092,7,1.087,8,1.462
261,1.68438E+12,1,50,80,2,0.785,15,5.269,1,1.242,18,3.349,1,1.238,10,2.678
261,1.68438E+12,2,20,80,2,0.785,12,2.73,1,1.634,18,1.725,5,1.401,10,1.524
261,1.68438E+12,3,20,50,2,1.971,12,2.274,7,4.176,15,2.946,2,1.674,5,3.312
261,1.68438E+12,4,50,20,1,0.962,15,2.664,1,1.5,12,3.116,1,1.102,10,1.55
261,1.68438E+12,5,80,50,1,1.043,18,2.321,1,1.167,15,2.089,1,1.321,10,1.136
261,1.68438E+12,6,80,20,1,0.844,18,1.84,1,1.097,12,1.872,1,0.712,10,0.934
261,1.68438E+12,7,-50,-20,2,0.672,5,7.818,1,3.75,8,1.907,5,1.964,10,1.434
261,1.68438E+12,8,-80,-50,2,1.26,2,42.592,1,1.935,5,1.811,1,4.626,10,1.503
261,1.68438E+12,9,-20,-80,1,0.647,8,2.117,7,1.902,2,2.131,1,1.543,10,1.527
261,1.68438E+12,10,-50,-80,1,0.77,4,3.168,1,0.985,2,1.616,5,2.342,10,1.069
261,1.68438E+12,11,-80,-20,2,0.75,2,1.739,5,2.428,8,1.407,2,1.825,10,2.408
261,1.68438E+12,12,-20,-50,1,0.759,8,1.92,1,0.941,4,3.04,1,0.899,10,0.909
261,1.68438E+12,13,50,-20,1,0.697,15,2.6,1,1.941,8,2.676,1,0.934,10,1.03
261,1.68438E+12,14,-50,80,2,1.249,4,19.087,1,0.789,18,2.047,2,0.794,10,1.369
261,1.68438E+12,15,20,-50,1,1.521,12,1.56,2,1.46,4,2.43,1,1.929,10,2.259
261,1.68438E+12,16,-20,80,2,0.496,8,1.388,1,1.673,18,1.817,1,0.707,10,0.889
261,1.68438E+12,17,20,-20,1,0.676,12,1.778,1,1.126,8,2.258,1,1.221,10,1.236
261,1.68438E+12,18,50,-80,1,0.988,15,3.669,1,1.212,2,2.064,1,0.793,10,1.245
261,1.68438E+12,19,50,-50,1,0.749,15,1.605,1,0.962,4,2.318,1,0.736,10,1.115
261,1.68438E+12,20,-80,20,2,1.125,2,1.866,1,0.749,12,1.533,1,0.758,10,0.986
261,1.68438E+12,21,-80,80,2,0.533,2,1.455,1,1.391,18,1.413,1,1.4,10,1.302
261,1.68438E+12,22,80,-80,1,0.82,18,3.124,1,0.751,2,1.429,1,1.019,10,1.374
261,1.68438E+12,23,-20,50,2,0.525,8,3.001,1,1.851,15,1.971,1,1.02,10,1.721
261,1.68438E+12,24,-50,20,2,0.544,5,3.557,1,0.805,12,1.451,1,0.735,10,1.753
261,1.68438E+12,25,20,-80,1,1.297,12,2.047,1,0.934,2,2.082,1,1.93,10,1.043
261,1.68438E+12,26,80,-50,1,1.067,18,1.695,1,1.387,4,2.027,1,1.046,10,1.378
261,1.68438E+12,27,80,-20,1,0.97,18,2.387,1,2.001,8,2.096,1,1.151,10,1.141
261,1.68438E+12,28,-50,50,2,1.757,4,3.335,1,1.329,15,1.602,1,0.714,10,3.012
261,1.68438E+12,29,-80,50,2,1.038,2,1.708,1,2.368,15,2.033,1,0.694,10,1.116
261,1.68438E+12,30,-20,20,2,0.908,8,1.827,1,0.993,12,2.41,1,1.305,10,1.844
262,1.68439E+12,1,-20,20,2,2.193,7,8.871,8,1.666,12,3.188,9,1.201,7,2.855
262,1.68439E+12,2,-50,50,2,0.816,3,2.392,9,1.505,15,3.766,9,0.928,9,2.248
262,1.68439E+12,3,-80,80,2,0.686,1,3.039,10,1.67,19,1.965,10,1.958,10,1.071
262,1.68439E+12,4,-80,50,2,1.305,0,2.831,10,1.395,16,4.117,9,2.434,9,1.708
262,1.68439E+12,5,50,-20,1,1.03,14,2.562,10,1.54,8,1.843,9,1.475,10,1.884
262,1.68439E+12,6,20,-80,1,1.023,12,2.413,10,1.257,1,1.866,9,1.139,10,1.837
262,1.68439E+12,7,-50,80,2,0.684,5,3.4,9,1.386,19,1.609,10,1.56,10,1.227
262,1.68439E+12,8,-20,80,2,1.051,8,3.063,10,1.834,19,2.172,10,0.856,10,2.428
262,1.68439E+12,9,20,-50,1,1.081,12,3.331,9,1.522,6,2.58,9,1.457,10,1.418
262,1.68439E+12,10,-20,50,2,1.742,8,2.436,10,1.097,15,5.621,10,5.25,10,2.187
262,1.68439E+12,11,-80,20,2,0.786,0,2.297,9,1.723,12,2.821,9,1.575,10,1.83
262,1.68439E+12,12,80,-50,1,0.8,20,2.672,9,1.918,4,1.938,9,1.18,10,1.044
262,1.68439E+12,13,50,-50,1,1.168,16,4.009,10,1.619,5,2.988,9,1.987,10,3.422
262,1.68439E+12,14,50,-80,1,1.057,15,12.577,10,1.334,1,2.107,10,1.37,10,1.672
262,1.68439E+12,15,20,-20,1,0.64,12,1.982,9,1.506,8,2.79,10,0.977,10,0.956
262,1.68439E+12,16,80,-20,1,0.83,19,1.653,9,1.929,8,1.458,9,1.053,10,1.493
262,1.68439E+12,17,80,-80,1,0.693,19,1.572,10,1.65,1,1.487,10,0.825,10,1.568
262,1.68439E+12,18,-50,20,2,1.161,4,2.945,10,1.239,12,1.826,10,1.168,10,2.969
262,1.68439E+12,19,-80,-20,2,0.934,1,1.877,10,0.854,8,2.176,9,1.92,10,1.91
262,1.68439E+12,20,-80,-50,2,0.767,1,1.819,10,0.762,6,2.597,10,0.977,9,1.7
262,1.68439E+12,21,-50,-20,2,0.611,6,2.496,10,0.827,8,1.466,10,1.486,10,1.189
262,1.68439E+12,22,-20,-80,1,0.775,9,2.236,10,1.296,0,2.233,10,0.77,10,1.443
262,1.68439E+12,23,-50,-80,1,0.924,6,2.713,10,1.311,2,1.54,10,1.051,9,1.413
262,1.68439E+12,24,-20,-50,2,0.35,8,1.644,10,0.757,5,1.497,10,1.117,0,2.406
262,1.68439E+12,25,80,50,1,0.639,20,7.863,10,1.049,14,2.705,9,1.216,10,1.619
262,1.68439E+12,26,20,50,2,0.597,12,1.671,10,0.991,16,1.323,10,0.801,10,2.11
262,1.68439E+12,27,20,80,2,0.774,12,3.88,9,1.155,18,1.42,10,0.796,10,1.992
262,1.68439E+12,28,50,20,1,0.913,15,1.559,10,1.598,12,1.469,9,1.409,10,1.465
262,1.68439E+12,29,80,20,1,0.843,19,2.054,10,1.358,12,1.679,9,1.381,10,1.407
262,1.68439E+12,30,50,80,2,0.623,15,2.178,10,2.049,20,1.509,10,1.071,10,1.227
