sub,time,trial,stim1,stim2,decision,RT_decision,val1,RT_val1,conf1,RT_conf1,val2,RT_val2,conf2,RT_conf2,conf_decision,RT_conf_decision
100,1678836935673,1,-80,-20,2,5.992,,,,,,,,,,
100,1678836941281,2,-80,-50,2,2.22,,,,,,,,,,
100,1678836947322,3,-20,-50,1,1.715,,,,,,,,,,
100,1678836966843,4,-20,-80,1,1.296,8.0,3.461,10.0,1.353,2.0,2.704,10.0,1.439,5.0,4.559
100,1678836981764,5,-50,-80,1,1.058,5.0,3.904,10.0,1.444,2.0,1.463,10.0,0.904,5.0,2.001
100,1678836995502,6,-50,-20,2,0.944,5.0,2.057,10.0,1.189,8.0,2.079,10.0,1.242,5.0,2.081
100,1678837000393,7,20,-20,1,1.35,,,,,,,,,,
100,1678837005518,8,-80,80,2,1.186,,,,,,,,,,
100,1678837010977,9,80,-50,1,1.536,,,,,,,,,,
100,1678837016443,10,-20,80,2,1.865,,,,,,,,,,
100,1678837022372,11,-20,50,2,2.071,,,,,,,,,,
100,1678837028481,12,-80,20,2,2.155,,,,,,,,,,
100,1678837033493,13,-80,50,2,1.544,,,,,,,,,,
100,1678837039272,14,-50,50,2,2.092,,,,,,,,,,
100,1678837044756,15,-50,20,2,1.518,,,,,,,,,,
100,1678837061890,16,50,-20,1,1.497,16.0,3.408,8.0,2.276,8.0,2.25,10.0,1.392,10.0,1.863
100,1678837079819,17,20,-80,1,1.135,12.0,2.828,10.0,1.263,2.0,2.691,10.0,3.307,10.0,1.956
100,1678837100094,18,50,-50,1,0.727,16.0,7.354,10.0,1.665,4.0,2.794,10.0,1.512,10.0,1.639
100,1678837115752,19,-50,80,2,0.626,5.0,2.045,10.0,2.215,18.0,3.68,10.0,1.412,10.0,1.008
100,1678837129198,20,80,-80,1,0.805,18.0,2.753,10.0,1.244,2.0,2.633,10.0,0.922,10.0,1.17
100,1678837146940,21,20,-50,1,0.853,12.0,3.916,10.0,1.803,5.0,3.477,10.0,1.306,10.0,1.895
100,1678837164144,22,80,-20,1,0.531,18.0,6.17,10.0,1.184,8.0,1.795,10.0,1.114,10.0,1.924
100,1678837177078,23,-20,20,2,0.643,8.0,1.706,10.0,1.898,12.0,1.985,10.0,1.003,10.0,1.105
100,1678837191332,24,50,-80,1,0.774,16.0,2.908,10.0,1.455,2.0,1.495,10.0,2.303,10.0,1.551
100,1678837197744,25,20,80,2,2.214,,,,,,,,,,
100,1678837203661,26,80,50,1,1.576,,,,,,,,,,
100,1678837208965,27,20,50,2,1.704,,,,,,,,,,
100,1678837222486,28,80,20,1,0.897,18.0,2.671,10.0,1.338,12.0,1.8,10.0,1.178,10.0,1.043
100,1678837237665,29,50,20,1,0.778,15.0,4.42,10.0,0.994,12.0,1.287,10.0,1.302,10.0,1.666
100,1678837250269,30,50,80,2,0.608,15.0,2.137,10.0,1.299,18.0,1.651,10.0,1.493,10.0,0.998
101,1678837379182,1,-50,-80,1,4.002,,,,,,,,,,
101,1678837388125,2,-20,-80,1,3.478,,,,,,,,,,
101,1678837398133,3,-50,-20,2,2.004,,,,,,,,,,
101,1678837426359,4,-20,-50,1,1.209,8.0,4.244,7.0,3.748,6.0,4.585,7.0,1.645,9.0,4.993
101,1678837448857,5,-80,-50,2,1.355,2.0,2.954,8.0,2.738,6.0,3.522,8.0,1.58,10.0,3.703
101,1678837469774,6,-80,-20,2,1.712,2.0,3.256,7.0,2.566,8.0,2.702,8.0,1.94,10.0,2.094
101,1678837479217,7,-50,80,2,2.325,,,,,,,,,,
101,1678837489208,8,50,-50,1,2.601,,,,,,,,,,
101,1678837500183,9,-20,50,2,3.331,,,,,,,,,,
101,1678837508109,10,-80,50,2,1.734,,,,,,,,,,
101,1678837517585,11,80,-20,1,1.734,,,,,,,,,,
101,1678837538318,12,20,-20,1,12.398,,,,,,,,,,
101,1678837546677,13,20,-50,1,1.381,,,,,,,,,,
101,1678837555070,14,-80,80,2,1.728,,,,,,,,,,
101,1678837565362,15,20,-80,1,1.366,,,,,,,,,,
101,1678837596153,16,80,-50,1,1.474,18.0,9.529,7.0,3.703,6.0,3.716,7.0,1.812,10.0,3.21
101,1678837623198,17,-20,20,2,1.781,8.0,2.392,8.0,2.805,12.0,6.047,7.0,2.347,10.0,2.83
101,1678837646862,18,80,-80,1,1.213,18.0,3.281,8.0,2.298,2.0,3.881,8.0,2.188,10.0,2.914
101,1678837670625,19,-50,20,2,1.462,6.0,4.316,7.0,1.805,12.0,3.191,7.0,2.776,10.0,2.536
101,1678837693823,20,50,-20,1,1.488,15.0,6.52,8.0,2.481,8.0,2.459,7.0,1.876,10.0,2.617
101,1678837717787,21,-50,50,2,1.281,6.0,2.826,7.0,1.647,16.0,4.773,10.0,2.494,10.0,3.055
101,1678837742732,22,-80,20,2,1.382,2.0,2.579,8.0,2.26,13.0,4.556,8.0,4.665,10.0,2.148
101,1678837767595,23,-20,80,2,1.271,8.0,2.645,7.0,3.214,18.0,3.749,8.0,3.404,10.0,2.075
101,1678837788179,24,50,-80,1,1.655,18.0,2.858,7.0,3.307,1.0,3.511,7.0,2.594,10.0,1.516
101,1678837798821,25,20,50,2,2.186,,,,,,,,,,
101,1678837806731,26,20,80,2,1.675,,,,,,,,,,
101,1678837815909,27,80,50,1,1.676,,,,,,,,,,
101,1678837839620,28,50,20,1,1.572,15.0,3.512,8.0,2.876,12.0,2.943,8.0,2.377,10.0,2.434
101,1678837863950,29,80,20,1,1.528,18.0,2.518,8.0,2.557,12.0,2.41,7.0,2.9,10.0,4.737
101,1678837888863,30,50,80,2,2.111,15.0,3.948,8.0,3.106,18.0,2.4,8.0,3.445,10.0,1.934
102,1678843480085,1,-50,-20,2,5.877,,,,,,,,,,
102,1678843487520,2,-20,-80,1,1.969,,,,,,,,,,
102,1678843499304,3,-50,-80,1,3.756,,,,,,,,,,
102,1678843532642,4,-80,-20,2,2.589,2.0,8.355,7.0,1.944,8.0,3.597,7.0,3.213,8.0,5.928
102,1678843556712,5,-80,-50,2,0.892,1.0,4.68,5.0,2.156,6.0,5.235,6.0,1.83,7.0,2.615
102,1678843576529,6,-20,-50,1,1.173,8.0,3.517,8.0,2.313,6.0,2.394,6.0,1.576,9.0,2.165
102,1678843590249,7,20,80,2,6.64,,,,,,,,,,
102,1678843597948,8,50,80,2,1.491,,,,,,,,,,
102,1678843607650,9,20,50,2,2.726,,,,,,,,,,
102,1678843631454,10,80,20,1,1.097,18.0,3.874,7.0,1.948,12.0,3.431,7.0,2.148,10.0,4.099
102,1678843653422,11,80,50,1,0.979,17.0,3.267,8.0,2.067,15.0,3.096,7.0,2.09,8.0,2.125
102,1678843677508,12,50,20,1,0.845,14.0,4.872,6.0,1.657,11.0,3.378,6.0,1.992,8.0,1.797
102,1678843685509,13,-80,50,1,1.092,,,,,,,,,,
102,1678843695027,14,20,-80,1,2.727,,,,,,,,,,
102,1678843703895,15,-20,20,2,1.246,,,,,,,,,,
102,1678843711646,16,-50,20,2,1.446,,,,,,,,,,
102,1678843719497,17,-50,80,2,1.266,,,,,,,,,,
102,1678843727997,18,-50,50,2,1.617,,,,,,,,,,
102,1678843736064,19,-80,80,2,1.419,,,,,,,,,,
102,1678843741816,20,-20,50,2,1.02,,,,,,,,,,
102,1678843749816,21,80,-20,1,1.122,,,,,,,,,,
102,1678843768602,22,50,-80,1,0.856,14.0,2.954,6.0,2.016,2.0,2.424,8.0,1.328,9.0,1.625
102,1678843788221,23,20,-20,1,0.712,12.0,2.66,6.0,1.864,7.0,2.41,6.0,1.196,9.0,2.313
102,1678843807873,24,80,-50,1,0.999,19.0,3.165,8.0,2.279,5.0,3.482,6.0,1.583,9.0,3.0
102,1678843829926,25,20,-50,1,1.063,12.0,2.403,7.0,2.394,6.0,2.79,8.0,2.229,8.0,1.544
102,1678843848728,26,80,-80,1,0.877,17.0,3.157,7.0,1.844,3.0,2.418,6.0,1.479,10.0,1.742
102,1678843868613,27,-20,80,2,0.76,8.0,3.077,8.0,1.698,20.0,2.729,7.0,1.562,10.0,1.529
102,1678843893532,28,-80,20,2,0.766,2.0,3.698,8.0,2.4,12.0,6.691,6.0,2.332,8.0,1.55
102,1678843913485,29,50,-20,1,0.766,15.0,2.737,7.0,2.298,8.0,3.33,5.0,1.081,9.0,1.664
102,1678843936970,30,50,-50,1,0.748,15.0,4.008,7.0,2.625,5.0,2.777,7.0,2.427,9.0,2.266
239,1684379394903,1,-50,-80,1,3.188,8.0,5.568,8.0,2.275,1.0,4.268,9.0,2.132,9.0,3.945
239,1684379420602,2,-80,-20,2,0.865,1.0,3.31,10.0,2.728,8.0,5.101,9.0,3.181,10.0,3.505
239,1684379455466,3,-20,-50,1,5.71,8.0,3.453,8.0,2.681,6.0,4.113,9.0,6.431,5.0,3.468
239,1684379475899,4,-20,-80,1,0.662,7.0,3.784,7.0,1.653,0.0,2.679,10.0,1.648,10.0,2.365
239,1684379496382,5,-80,-50,2,1.202,1.0,2.732,10.0,2.255,7.0,2.46,9.0,3.002,10.0,2.264
239,1684379519997,6,-50,-20,1,3.694,7.0,3.484,6.0,2.57,7.0,3.02,5.0,1.323,3.0,2.867
239,1684379545678,7,50,-20,1,0.841,16.0,4.03,10.0,2.647,6.0,5.947,9.0,1.815,10.0,2.306
239,1684379566677,8,-80,20,2,0.62,1.0,2.284,10.0,1.885,12.0,4.836,10.0,1.908,10.0,1.993
239,1684379590676,9,-50,80,2,2.973,6.0,4.139,5.0,2.107,19.0,3.157,10.0,1.795,10.0,1.848
239,1684379609259,10,50,-80,1,1.449,16.0,2.902,9.0,1.259,1.0,2.687,10.0,1.2,10.0,1.577
239,1684379631365,11,-50,50,2,0.82,7.0,3.156,7.0,1.402,16.0,3.664,10.0,1.668,10.0,3.079
239,1684379654107,12,20,-50,1,0.882,12.0,3.08,9.0,1.371,6.0,2.832,5.0,2.171,10.0,2.932
239,1684379674222,13,80,-20,1,0.782,19.0,2.672,10.0,2.212,7.0,2.921,7.0,1.317,10.0,2.218
239,1684379696689,14,80,-80,1,1.055,19.0,2.55,10.0,1.894,1.0,4.587,10.0,1.728,10.0,3.06
239,1684379719654,15,20,-20,1,0.842,12.0,3.227,9.0,4.051,7.0,2.396,8.0,1.514,10.0,1.989
239,1684379738386,16,50,-50,1,0.782,16.0,2.241,9.0,1.919,6.0,2.78,7.0,1.827,10.0,1.557
239,1684379760535,17,-20,20,2,0.906,7.0,3.898,5.0,2.867,12.0,2.143,10.0,1.546,10.0,2.3
239,1684379779133,18,-20,50,2,0.802,7.0,2.906,7.0,1.081,16.0,2.697,10.0,1.516,10.0,1.703
239,1684379799216,19,80,-50,1,0.968,19.0,2.64,10.0,1.542,7.0,2.063,8.0,2.167,10.0,1.732
239,1684379817098,20,-50,20,2,0.999,7.0,3.724,7.0,1.396,12.0,2.05,10.0,1.384,10.0,2.584
239,1684379834248,21,20,-80,1,0.802,12.0,1.762,10.0,1.685,1.0,2.286,10.0,1.382,10.0,1.411
239,1684379852429,22,-80,80,2,0.815,1.0,2.375,10.0,1.546,19.0,2.148,10.0,2.357,10.0,1.602
239,1684379872079,23,-20,80,2,0.55,7.0,3.171,7.0,1.072,19.0,2.476,10.0,1.628,10.0,2.045
239,1684379890477,24,-80,50,2,0.746,1.0,3.385,10.0,2.64,16.0,2.664,10.0,2.066,10.0,1.792
239,1684379913728,25,50,20,1,1.482,16.0,2.199,9.0,3.648,12.0,1.913,9.0,1.356,10.0,3.929
239,1684379934125,26,80,20,1,0.751,18.0,3.145,10.0,2.027,12.0,1.839,10.0,1.899,10.0,2.089
239,1684379955275,27,80,50,1,2.398,19.0,2.154,10.0,2.549,16.0,1.937,10.0,1.708,10.0,1.905
239,1684379973324,28,20,50,2,0.728,12.0,1.648,9.0,2.704,16.0,1.924,10.0,1.453,10.0,2.068
239,1684379993757,29,20,80,2,0.648,12.0,3.188,9.0,1.427,19.0,3.503,10.0,1.323,10.0,2.639
239,1684380011622,30,50,80,2,0.594,16.0,1.799,9.0,1.785,19.0,2.51,10.0,1.853,10.0,1.608
240,1684382066401,1,-50,-80,2,6.46,10.0,3.788,5.0,2.305,10.0,3.544,5.0,2.579,2.0,5.424
240,1684382180734,2,-20,-50,1,2.346,10.0,53.972,5.0,2.11,10.0,2.835,3.0,9.507,5.0,37.046
240,1684382277405,3,-80,-20,2,25.649,16.0,6.94,6.0,4.723,10.0,35.473,2.0,5.584,5.0,6.405
240,1684382340635,4,-50,-20,2,3.824,13.0,24.921,3.0,2.78,10.0,4.09,6.0,3.084,6.0,16.64
240,1684382374316,5,-20,-80,2,1.593,10.0,14.855,5.0,2.747,10.0,3.473,5.0,1.926,5.0,2.427
240,1684382401335,6,-80,-50,2,1.73,10.0,5.804,5.0,2.759,10.0,4.313,5.0,2.523,5.0,3.21
240,1684382435168,7,-80,20,2,3.615,10.0,4.205,5.0,3.377,10.0,7.392,5.0,4.59,5.0,2.546
240,1684382479584,8,-20,50,2,1.322,10.0,3.358,5.0,2.71,10.0,6.709,5.0,18.667,5.0,3.035
240,1684382505217,9,-80,50,2,1.64,10.0,3.158,5.0,2.825,10.0,2.603,5.0,2.254,5.0,3.125
240,1684382623517,10,50,-50,2,1.153,10.0,97.991,5.0,2.209,10.0,2.526,5.0,2.109,5.0,3.64
240,1684382651382,11,80,-50,2,1.378,10.0,4.79,5.0,2.258,10.0,2.73,5.0,2.078,5.0,2.735
240,1684382683665,12,80,-80,2,1.332,20.0,5.841,7.0,3.724,16.0,5.225,5.0,2.971,5.0,3.258
240,1684382712265,13,20,-50,1,2.371,10.0,3.841,5.0,2.625,10.0,2.7,5.0,2.759,7.0,6.283
240,1684382752081,14,-20,80,2,1.311,10.0,3.692,5.0,10.938,10.0,3.512,5.0,2.441,5.0,3.459
240,1684382785864,15,20,-20,2,1.671,10.0,2.972,5.0,4.625,10.0,8.578,5.0,2.794,5.0,2.343
240,1684382817248,16,20,-80,1,1.608,14.0,6.407,5.0,4.298,10.0,2.489,5.0,2.434,7.0,6.842
240,1684382844048,17,-20,20,2,1.36,10.0,7.826,5.0,1.842,10.0,1.927,5.0,2.032,6.0,3.078
240,1684382872148,18,50,-20,2,1.079,10.0,6.306,5.0,2.998,10.0,2.996,5.0,2.462,5.0,2.333
240,1684382896048,19,50,-80,1,0.829,16.0,5.056,5.0,2.095,10.0,1.784,5.0,1.875,7.0,3.973
240,1684382917597,20,-50,50,2,1.307,6.0,4.472,7.0,2.527,14.0,2.89,7.0,2.311,8.0,2.317
240,1684382945864,21,80,-20,1,2.01,10.0,7.306,5.0,4.441,10.0,2.473,5.0,1.965,5.0,2.006
240,1684382966164,22,-50,80,1,1.125,10.0,2.774,5.0,2.595,10.0,2.176,5.0,1.96,5.0,2.302
240,1684382989397,23,-80,80,1,1.178,10.0,2.575,5.0,1.663,10.0,2.84,5.0,2.509,5.0,3.951
240,1684383010030,24,-50,20,2,1.292,11.0,2.408,5.0,1.627,10.0,2.491,5.0,3.641,7.0,3.993
240,1684383038147,25,80,20,2,3.691,10.0,2.641,5.0,1.878,14.0,2.914,7.0,3.196,7.0,2.709
240,1684383064347,26,50,20,2,1.972,16.0,3.608,7.0,2.606,18.0,3.506,8.0,2.613,9.0,4.574
240,1684383088264,27,80,50,2,1.275,12.0,3.004,6.0,2.219,17.0,3.226,8.0,2.73,8.0,2.922
240,1684383114330,28,20,80,1,1.344,14.0,3.292,6.0,3.607,12.0,2.305,6.0,1.961,8.0,5.447
240,1684383136013,29,50,80,1,1.354,16.0,2.973,5.0,1.824,10.0,1.645,5.0,2.495,5.0,2.24
240,1684383154729,30,20,50,1,0.963,12.0,2.723,5.0,1.744,10.0,1.608,5.0,1.723,5.0,2.244
241,1684379761601,1,80,50,1,1.926,19.0,4.009,8.0,2.876,15.0,3.923,8.0,1.496,8.0,2.675
241,1684379781207,2,80,20,1,1.204,20.0,2.889,7.0,2.651,12.0,2.061,8.0,1.914,9.0,2.421
241,1684379806457,3,50,20,1,1.764,16.0,3.818,8.0,1.607,12.0,3.476,5.0,1.405,8.0,1.84
241,1684379828294,4,20,80,2,1.645,12.0,3.12,8.0,1.765,19.0,2.452,8.0,1.829,8.0,3.168
241,1684379848765,5,20,50,2,1.509,12.0,3.068,8.0,1.669,16.0,2.44,8.0,2.788,8.0,2.322
241,1684379871934,6,50,80,2,1.089,16.0,4.979,8.0,2.483,19.0,2.922,9.0,2.738,8.0,2.293
241,1684379895735,7,-80,-50,2,1.279,2.0,3.149,8.0,2.379,5.0,4.435,8.0,2.071,8.0,2.252
241,1684379918205,8,-80,-20,2,1.004,2.0,2.524,8.0,1.618,8.0,5.24,8.0,1.696,8.0,2.823
241,1684379950086,9,-20,-50,1,1.185,8.0,3.188,8.0,2.513,4.0,2.748,7.0,1.432,8.0,2.345
241,1684379971389,10,-20,-80,1,1.096,16.0,1.985,1.0,2.897,2.0,3.996,7.0,1.674,8.0,2.18
241,1684379992677,11,-50,-20,2,1.132,4.0,2.474,8.0,1.858,8.0,2.054,8.0,1.58,8.0,3.292
241,1684380016995,12,-50,-80,1,2.13,4.0,2.72,8.0,1.736,2.0,3.068,8.0,2.266,8.0,2.179
241,1684380042945,13,50,-80,1,2.71,16.0,5.31,8.0,2.299,2.0,3.041,8.0,1.859,8.0,2.749
241,1684380062083,14,20,-20,1,1.116,12.0,2.37,8.0,1.445,8.0,2.089,8.0,2.198,8.0,2.193
241,1684380086835,15,-50,80,2,1.403,4.0,5.217,8.0,1.985,19.0,2.745,8.0,2.258,10.0,2.057
241,1684380108338,16,-20,80,2,1.436,8.0,3.134,8.0,1.919,19.0,2.856,8.0,2.0,10.0,2.741
241,1684380133589,17,20,-80,1,1.632,12.0,3.387,8.0,3.673,2.0,3.825,8.0,2.495,10.0,2.181
241,1684380155609,18,20,-50,1,1.744,12.0,2.827,8.0,2.267,4.0,2.8,8.0,1.879,10.0,2.57
241,1684380176130,19,50,-50,1,1.739,16.0,2.678,7.0,1.651,4.0,2.503,8.0,1.757,10.0,2.47
241,1684380196686,20,50,-20,1,1.371,16.0,3.986,7.0,1.98,8.0,3.855,8.0,1.645,10.0,1.93
241,1684380217587,21,80,-80,1,1.482,20.0,2.507,8.0,2.564,2.0,2.588,8.0,2.079,10.0,1.776
241,1684380242039,22,-20,20,2,1.403,8.0,3.328,8.0,2.084,12.0,5.724,8.0,1.862,8.0,2.666
241,1684380265741,23,-50,50,2,1.337,4.0,3.5,8.0,2.047,16.0,3.924,8.0,2.207,8.0,2.127
241,1684380284663,24,-80,20,2,2.737,2.0,2.983,8.0,1.936,12.0,2.356,8.0,1.685,10.0,2.065
241,1684380308798,25,-80,80,2,0.896,2.0,2.797,8.0,1.959,19.0,2.461,8.0,4.943,10.0,1.803
241,1684380327187,26,-20,50,2,0.862,8.0,2.389,9.0,1.903,16.0,2.017,8.0,1.929,8.0,1.992
241,1684380349190,27,80,-20,1,1.08,19.0,2.727,8.0,1.838,8.0,2.766,8.0,2.269,9.0,2.78
241,1684380370260,28,-50,20,2,1.941,4.0,2.623,8.0,2.137,12.0,3.028,8.0,1.918,10.0,2.031
241,1684380390299,29,-80,50,2,1.007,2.0,2.48,8.0,1.83,16.0,2.565,8.0,1.962,10.0,2.098
241,1684380414483,30,80,-50,1,1.232,19.0,2.487,9.0,2.973,4.0,4.074,8.0,2.612,10.0,3.105
242,1684380050748,1,20,-80,1,1.609,14.0,6.299,5.0,1.676,2.0,2.585,3.0,1.488,8.0,3.154
242,1684380077892,2,-20,20,2,2.018,9.0,4.728,4.0,2.382,13.0,8.22,5.0,1.548,7.0,1.789
242,1684380110269,3,-80,80,2,1.001,3.0,12.424,2.0,1.394,18.0,4.922,4.0,1.509,8.0,1.723
242,1684380134764,4,-80,50,2,1.165,3.0,3.867,3.0,1.887,15.0,4.244,3.0,1.989,7.0,3.404
242,1684380164425,5,-50,20,2,1.163,4.0,6.963,4.0,1.627,11.0,5.268,4.0,5.426,7.0,2.473
242,1684380192152,6,50,-50,1,3.396,15.0,6.185,4.0,1.415,7.0,5.757,3.0,2.343,6.0,1.957
242,1684380221346,7,80,-20,1,1.04,18.0,6.381,3.0,3.437,8.0,4.516,4.0,1.181,6.0,1.603
242,1684380245892,8,-50,80,2,0.957,3.0,5.82,3.0,1.373,19.0,3.476,5.0,3.542,7.0,1.388
242,1684380274835,9,50,-20,1,1.114,17.0,11.167,4.0,1.675,7.0,3.756,3.0,1.906,6.0,1.208
242,1684380338188,10,-80,20,2,0.864,2.0,45.183,3.0,1.701,14.0,4.371,4.0,2.064,7.0,1.655
242,1684380366199,11,-20,50,2,0.949,10.0,5.816,3.0,2.538,16.0,5.96,3.0,2.11,6.0,1.799
242,1684380393078,12,20,-50,1,1.107,14.0,5.015,5.0,1.388,6.0,5.777,3.0,1.787,7.0,1.63
242,1684380416122,13,80,-80,1,0.946,20.0,5.83,5.0,1.661,1.0,2.782,4.0,1.755,7.0,2.016
242,1684380476018,14,-20,80,2,1.0,5.0,6.541,3.0,1.012,18.0,3.784,4.0,2.517,6.0,2.159
242,1684380503488,15,80,-50,1,0.708,19.0,3.095,4.0,1.479,4.0,3.262,2.0,2.741,8.0,1.436
242,1684380524900,16,20,-20,1,0.698,13.0,4.742,3.0,1.921,9.0,4.082,2.0,1.64,6.0,0.918
242,1684380545596,17,50,-80,1,0.867,16.0,5.281,4.0,1.751,1.0,2.517,4.0,1.495,7.0,1.004
242,1684380570091,18,-50,50,2,0.963,5.0,5.02,4.0,1.203,17.0,6.301,4.0,1.805,6.0,1.21
242,1684380609350,19,-20,-50,1,5.234,6.0,3.344,4.0,5.437,4.0,12.227,3.0,1.95,6.0,1.995
242,1684380633994,20,-80,-50,2,0.85,2.0,2.927,2.0,2.005,4.0,2.222,4.0,1.525,6.0,6.471
242,1684380650608,21,-80,-20,2,0.703,2.0,2.566,1.0,1.239,8.0,2.117,4.0,1.05,6.0,1.019
242,1684380669904,22,-20,-80,1,0.731,8.0,1.801,3.0,1.411,1.0,2.72,5.0,3.046,7.0,1.856
242,1684380689583,23,-50,-80,1,0.622,3.0,2.315,3.0,1.389,1.0,3.554,4.0,1.303,7.0,1.194
242,1684380702731,24,-50,-20,2,0.56,5.0,2.026,4.0,0.879,10.0,2.139,4.0,1.423,8.0,1.191
242,1684380724776,25,50,80,2,0.507,16.0,5.059,4.0,1.496,19.0,3.119,5.0,1.478,7.0,1.169
242,1684380740289,26,50,20,1,0.578,15.0,2.826,4.0,1.067,12.0,1.743,3.0,0.824,6.0,1.333
242,1684380758652,27,80,20,1,0.779,18.0,2.57,3.0,1.362,14.0,1.944,3.0,1.892,6.0,1.158
242,1684380778565,28,80,50,1,0.892,19.0,2.102,2.0,1.097,15.0,5.928,3.0,1.14,8.0,1.295
242,1684380815143,29,20,80,2,0.961,12.0,3.534,2.0,1.318,18.0,2.379,4.0,5.328,7.0,1.359
242,1684380844534,30,20,50,2,0.746,11.0,2.331,3.0,1.659,14.0,1.931,4.0,2.25,7.0,1.232
243,1684380101835,1,50,80,2,4.132,10.0,4.729,6.0,2.651,8.0,6.458,5.0,4.678,2.0,10.344
243,1684380150964,2,80,20,1,5.445,8.0,6.32,3.0,4.478,12.0,9.411,5.0,6.486,3.0,10.206
243,1684380187997,3,20,50,2,6.894,4.0,6.332,5.0,2.752,8.0,4.411,5.0,3.75,4.0,3.621
243,1684380225430,4,20,80,2,3.773,13.0,5.531,5.0,3.137,17.0,7.836,5.0,4.623,5.0,4.57
243,1684380261214,5,50,20,1,2.267,4.0,3.878,3.0,3.572,10.0,7.108,3.0,5.984,6.0,6.363
243,1684380307944,6,80,50,1,3.033,17.0,8.303,4.0,6.547,14.0,12.724,3.0,4.258,6.0,5.311
243,1684380351075,7,-80,-50,2,2.754,4.0,11.356,5.0,3.422,5.0,5.43,5.0,5.683,5.0,6.216
243,1684380393156,8,-50,-20,1,4.105,6.0,4.462,5.0,7.041,10.0,7.335,3.0,6.334,5.0,4.739
243,1684380444600,9,-20,-80,1,3.855,7.0,8.118,5.0,2.789,10.0,4.841,1.0,9.583,6.0,14.354
243,1684380481117,10,-80,-20,2,6.18,4.0,4.71,5.0,3.238,4.0,5.599,3.0,4.598,6.0,4.99
243,1684380519483,11,-50,-80,1,4.026,6.0,4.86,4.0,2.404,4.0,4.166,3.0,2.797,4.0,11.296
243,1684380568028,12,-20,-50,2,12.795,6.0,3.989,4.0,4.55,10.0,7.471,4.0,5.576,3.0,4.304
243,1684380611326,13,80,-20,1,5.86,16.0,8.915,5.0,5.019,6.0,4.654,7.0,4.341,5.0,6.255
243,1684380680512,14,20,-80,1,4.697,14.0,5.204,5.0,7.744,14.0,27.654,5.0,9.016,4.0,6.958
243,1684380787098,15,-20,50,1,3.583,6.0,8.377,3.0,11.807,16.0,8.205,4.0,30.21,0.0,32.558
243,1684380891319,16,-50,50,2,5.152,6.0,8.544,4.0,9.039,16.0,16.192,5.0,19.573,4.0,37.602
243,1684380937348,17,-50,80,1,2.3,6.0,6.049,5.0,3.141,18.0,9.756,6.0,5.461,4.0,9.113
243,1684381037821,18,20,-50,1,2.646,16.0,30.914,3.0,18.522,4.0,7.418,5.0,25.234,5.0,6.886
243,1684381111888,19,20,-20,1,4.035,13.0,15.136,7.0,4.353,6.0,30.042,4.0,4.632,4.0,5.946
243,1684381164631,20,50,-80,1,2.654,16.0,25.2,3.0,4.788,4.0,6.649,3.0,2.961,3.0,4.8
243,1684381215726,21,80,-80,1,2.692,16.0,8.273,5.0,10.753,4.0,6.733,3.0,4.681,5.0,8.711
243,1684381297590,22,80,-50,1,3.284,16.0,12.907,5.0,5.462,4.0,13.02,5.0,13.667,4.0,24.8
243,1684381334557,23,50,-20,1,3.624,8.0,5.012,5.0,3.872,8.0,7.12,4.0,4.878,4.0,3.812
243,1684381361561,24,-80,50,1,1.563,6.0,5.184,5.0,2.988,6.0,4.698,5.0,4.032,2.0,3.449
243,1684381397978,25,-50,20,1,2.532,6.0,5.833,3.0,7.189,6.0,3.512,3.0,3.184,4.0,4.568
243,1684381437461,26,-20,20,1,2.783,4.0,8.306,5.0,3.411,13.0,7.257,4.0,5.053,3.0,4.708
243,1684381468914,27,50,-50,2,1.498,6.0,5.757,5.0,2.505,10.0,2.772,6.0,5.302,3.0,4.697
243,1684381504314,28,-80,20,2,1.877,5.0,5.064,5.0,1.67,14.0,8.514,4.0,3.635,6.0,6.352
243,1684381547279,29,-80,80,1,4.593,10.0,3.647,5.0,3.038,7.0,9.108,5.0,4.928,3.0,9.701
243,1684381576966,30,-20,80,1,1.486,6.0,3.662,3.0,4.066,8.0,4.047,3.0,5.003,4.0,3.709
244,1684379623787,1,80,-50,2,6.495,12.0,6.92,1.0,1.0,9.0,5.225,8.0,0.733,1.0,2.072
244,1684379646958,2,80,-20,1,0.892,14.0,7.412,7.0,1.589,5.0,3.184,1.0,1.25,9.0,3.697
244,1684379673979,3,-80,80,1,2.351,15.0,6.285,7.0,1.845,7.0,2.681,3.0,2.516,8.0,1.717
244,1684379690251,4,-20,50,2,0.658,9.0,2.38,0.0,1.553,10.0,3.424,1.0,1.404,8.0,1.196
244,1684379705111,5,-80,50,1,0.507,14.0,4.158,2.0,1.047,6.0,2.084,8.0,0.999,6.0,1.314
244,1684379724658,6,20,-20,1,0.569,13.0,9.152,8.0,1.215,8.0,1.497,3.0,1.235,8.0,1.116
244,1684379739261,7,-50,50,2,0.443,2.0,2.32,10.0,0.918,10.0,2.028,0.0,1.902,2.0,1.658
244,1684379755575,8,20,-50,1,0.499,16.0,4.993,8.0,0.861,7.0,1.796,3.0,1.262,9.0,1.083
244,1684379778536,9,20,-80,2,0.448,12.0,7.585,8.0,0.854,6.0,1.55,2.0,3.229,0.0,3.604
244,1684379793848,10,-20,20,2,0.476,8.0,3.409,7.0,1.343,15.0,1.912,10.0,0.749,8.0,1.874
244,1684379818042,11,-80,20,1,0.465,10.0,2.252,8.0,0.872,6.0,1.706,10.0,0.739,10.0,1.503
244,1684379854611,12,50,-80,1,0.577,15.0,23.05,8.0,1.02,5.0,2.294,9.0,1.05,9.0,1.743
244,1684379875090,13,80,-80,1,1.165,14.0,8.876,8.0,1.034,12.0,1.823,7.0,0.677,0.0,1.709
244,1684379923133,14,-50,80,2,0.478,10.0,34.439,0.0,0.828,14.0,2.105,1.0,1.22,2.0,2.987
244,1684379945705,15,50,-20,1,0.639,16.0,10.286,9.0,1.465,5.0,2.058,9.0,0.895,9.0,0.722
244,1684379974800,16,-20,80,1,1.579,16.0,10.444,1.0,3.771,4.0,2.85,7.0,1.287,0.0,2.088
244,1684380000244,17,-50,20,2,2.622,14.0,11.001,10.0,0.938,12.0,2.138,10.0,1.274,9.0,2.109
244,1684380016988,18,50,-50,1,0.529,13.0,5.85,9.0,0.952,7.0,1.343,2.0,0.804,0.0,2.025
244,1684380051208,19,50,20,1,0.791,10.0,23.502,10.0,0.862,8.0,1.748,8.0,0.825,8.0,1.377
244,1684380118778,20,80,20,2,1.511,6.0,47.514,9.0,0.777,13.0,11.337,8.0,0.751,0.0,1.357
244,1684380133207,21,80,50,2,1.149,7.0,3.163,9.0,1.002,15.0,1.527,8.0,0.749,9.0,1.508
244,1684380164277,22,50,80,1,0.691,18.0,11.404,9.0,1.192,4.0,1.869,10.0,0.599,10.0,1.073
244,1684380190478,23,20,50,2,0.667,14.0,14.323,9.0,1.053,18.0,2.13,10.0,0.683,3.0,1.885
244,1684380201827,24,20,80,2,0.762,5.0,2.062,9.0,0.783,10.0,1.999,9.0,0.672,10.0,0.993
244,1684380217460,25,-80,-50,1,0.423,20.0,3.442,1.0,1.025,3.0,1.397,8.0,0.755,9.0,2.079
244,1684380234892,26,-50,-20,1,1.135,12.0,5.154,7.0,0.67,6.0,1.392,8.0,0.624,0.0,2.574
244,1684380258827,27,-20,-80,2,0.431,6.0,11.34,2.0,1.855,10.0,3.148,8.0,0.572,2.0,1.059
244,1684380273694,28,-50,-80,1,0.787,20.0,3.266,2.0,1.971,8.0,1.733,7.0,0.931,8.0,1.09
244,1684380285676,29,-80,-20,1,0.663,12.0,2.334,3.0,0.676,5.0,1.175,8.0,0.967,8.0,0.928
244,1684380308407,30,-20,-50,1,0.267,15.0,11.663,9.0,0.83,3.0,1.578,9.0,1.1,10.0,2.124
246,1684379475298,1,20,-50,1,1.763,16.0,3.985,8.0,1.083,4.0,3.405,8.0,1.338,9.0,4.199
246,1684379498905,2,-80,50,2,1.637,2.0,2.64,9.0,1.255,16.0,3.069,7.0,4.097,6.0,4.255
246,1684379518600,3,-50,80,2,0.714,4.0,2.324,9.0,1.158,20.0,2.777,7.0,1.979,5.0,1.695
246,1684379539524,4,20,-20,1,1.105,16.0,2.951,6.0,1.975,8.0,1.792,10.0,1.096,6.0,4.224
246,1684379559416,5,-80,20,2,0.658,2.0,6.112,8.0,1.42,14.0,2.414,8.0,0.944,8.0,1.667
246,1684379576209,6,-50,50,2,0.677,8.0,2.333,6.0,1.956,14.0,1.972,5.0,1.146,8.0,2.059
246,1684379599950,7,-80,80,2,0.642,0.0,4.558,9.0,2.016,20.0,2.416,9.0,1.963,5.0,3.751
246,1684379617310,8,50,-20,1,1.103,14.0,2.713,7.0,0.968,8.0,1.67,9.0,1.259,6.0,2.083
246,1684379635470,9,-20,80,2,0.877,8.0,2.463,10.0,1.153,20.0,2.921,9.0,1.245,6.0,1.233
246,1684379653097,10,80,-80,1,1.127,20.0,1.946,8.0,1.382,0.0,2.206,10.0,1.069,8.0,2.328
246,1684379669523,11,-20,20,2,0.863,8.0,1.913,9.0,1.022,12.0,2.04,10.0,0.968,10.0,1.016
246,1684379690432,12,20,-80,1,0.881,12.0,2.178,7.0,0.985,0.0,3.302,9.0,1.767,8.0,1.077
246,1684379707209,13,-50,20,2,0.851,4.0,3.08,9.0,0.74,13.0,1.557,8.0,1.15,8.0,0.904
246,1684379723436,14,80,-20,1,0.852,20.0,2.556,7.0,1.021,8.0,1.704,10.0,0.84,7.0,0.853
246,1684379740964,15,80,-50,1,0.956,20.0,2.214,7.0,1.416,4.0,2.091,9.0,0.866,7.0,1.183
246,1684379757357,16,50,-50,1,0.687,16.0,1.867,7.0,2.437,4.0,1.617,8.0,0.883,8.0,1.505
246,1684379774750,17,-20,50,2,0.793,8.0,1.741,8.0,1.258,17.0,1.653,6.0,1.085,8.0,2.933
246,1684379791961,18,50,-80,2,0.445,16.0,1.989,8.0,1.283,0.0,1.681,9.0,1.263,1.0,2.455
246,1684379812036,19,-50,-20,2,1.46,4.0,2.067,8.0,1.796,8.0,3.154,8.0,1.524,5.0,2.271
246,1684379827947,20,-50,-80,1,0.588,4.0,2.299,8.0,0.852,0.0,3.35,8.0,1.439,8.0,1.466
246,1684379846356,21,-80,-20,2,0.686,0.0,2.073,8.0,1.497,8.0,1.536,8.0,1.746,5.0,2.951
246,1684379862434,22,-20,-50,1,0.797,8.0,1.653,8.0,1.586,4.0,1.839,7.0,1.455,5.0,1.192
246,1684379881993,23,-80,-50,2,0.559,0.0,2.952,9.0,2.237,4.0,1.738,10.0,1.439,5.0,1.655
246,1684379895638,24,-20,-80,1,0.571,8.0,2.113,8.0,1.802,0.0,1.668,9.0,0.892,9.0,1.515
246,1684379915530,25,20,50,2,0.546,12.0,3.052,8.0,1.197,16.0,1.768,9.0,1.323,7.0,1.333
246,1684379931174,26,20,80,2,0.589,13.0,1.89,7.0,1.496,20.0,2.102,8.0,1.152,8.0,1.096
246,1684379948484,27,50,80,2,1.028,14.0,1.846,7.0,2.162,20.0,1.493,9.0,0.928,9.0,1.337
246,1684379965095,28,80,50,1,1.458,20.0,2.67,9.0,0.906,16.0,1.629,8.0,0.859,8.0,1.648
246,1684379979806,29,50,20,1,0.703,16.0,1.773,7.0,1.051,12.0,1.372,7.0,0.809,6.0,1.48
246,1684379996050,30,80,20,1,1.011,20.0,1.88,8.0,0.774,14.0,2.377,8.0,0.784,8.0,1.288
247,1684379140316,1,-50,-80,2,2.092,5.0,4.006,8.0,1.356,12.0,5.041,9.0,1.611,9.0,1.984
247,1684379156645,2,-80,-20,1,0.901,13.0,2.473,9.0,1.321,8.0,4.071,5.0,1.282,7.0,1.608
247,1684379173730,3,-20,-50,1,1.188,8.0,1.76,8.0,1.273,5.0,2.706,8.0,1.524,9.0,2.757
247,1684379190719,4,-50,-20,2,1.028,4.0,2.796,9.0,1.676,7.0,2.167,7.0,2.331,9.0,1.704
247,1684379205741,5,-80,-50,1,0.748,13.0,2.324,8.0,1.496,6.0,3.039,9.0,1.547,10.0,1.207
247,1684379220408,6,-20,-80,2,1.519,8.0,1.635,9.0,1.681,13.0,2.406,9.0,0.948,10.0,1.777
247,1684379237486,7,80,20,1,0.741,17.0,3.02,10.0,1.388,12.0,3.324,10.0,1.835,10.0,1.49
247,1684379257193,8,80,50,1,0.747,18.0,2.388,10.0,2.413,15.0,5.093,9.0,1.768,10.0,1.873
247,1684379273695,9,20,50,2,0.646,13.0,2.817,9.0,1.437,16.0,3.252,9.0,1.259,10.0,1.514
247,1684379289641,10,20,80,2,0.587,12.0,2.367,6.0,1.689,18.0,1.925,9.0,2.639,10.0,1.243
247,1684379306615,11,50,80,2,0.583,14.0,3.205,8.0,1.368,19.0,2.299,9.0,1.909,10.0,1.988
247,1684379325522,12,50,20,1,0.817,15.0,5.233,8.0,1.599,11.0,2.69,10.0,1.316,10.0,1.548
247,1684379341398,13,-20,50,2,1.158,7.0,1.927,8.0,1.216,16.0,2.939,8.0,1.403,10.0,1.985
247,1684379358046,14,-80,20,2,1.127,12.0,1.665,8.0,1.07,12.0,2.706,10.0,2.505,7.0,2.191
247,1684379374193,15,80,-80,1,0.885,18.0,2.283,10.0,1.103,12.0,2.675,9.0,1.917,10.0,1.175
247,1684379390188,16,-20,20,2,0.787,18.0,2.333,9.0,2.069,13.0,2.946,9.0,1.445,8.0,1.424
247,1684379404493,17,-80,50,2,0.674,12.0,2.181,6.0,0.982,16.0,2.172,9.0,1.165,10.0,1.277
247,1684379420154,18,20,-50,1,0.759,12.0,2.793,8.0,1.17,5.0,2.297,10.0,1.234,10.0,2.201
247,1684379435613,19,50,-50,1,0.715,16.0,2.456,8.0,1.705,6.0,2.33,9.0,1.22,10.0,1.215
247,1684379447924,20,80,-20,1,0.695,18.0,1.744,8.0,1.283,8.0,1.859,8.0,0.998,10.0,1.433
247,1684379462570,21,-50,80,2,0.91,5.0,2.305,9.0,1.787,17.0,1.835,9.0,1.138,10.0,1.216
247,1684379475805,22,50,-20,1,0.769,16.0,1.759,9.0,1.545,9.0,1.567,8.0,1.122,10.0,1.291
247,1684379489623,23,20,-20,1,0.707,12.0,2.042,9.0,1.212,8.0,1.747,9.0,1.432,10.0,1.222
247,1684379503254,24,-80,80,2,0.794,12.0,1.968,10.0,1.757,18.0,1.808,9.0,1.64,10.0,1.603
247,1684379517969,25,80,-50,1,0.635,17.0,2.422,10.0,0.938,5.0,1.983,9.0,1.196,10.0,1.333
247,1684379532101,26,-50,50,2,0.698,5.0,2.176,9.0,1.517,16.0,1.757,9.0,1.806,10.0,1.257
247,1684379546246,27,20,-80,1,0.761,12.0,1.974,9.0,1.099,12.0,1.688,9.0,1.94,8.0,1.215
247,1684379561143,28,-20,80,2,0.606,7.0,2.153,8.0,1.02,18.0,2.548,9.0,1.613,10.0,1.411
247,1684379575073,29,-50,20,2,0.634,5.0,1.829,9.0,1.627,12.0,2.194,9.0,1.206,10.0,1.206
247,1684379588642,30,50,-80,1,0.679,16.0,2.546,9.0,1.012,11.0,1.675,8.0,1.412,10.0,0.928
248,1684379319168,1,-20,-80,1,1.116,8.0,3.943,6.0,1.921,1.0,4.0,9.0,1.735,10.0,2.954
248,1684379339328,2,-50,-20,2,1.778,5.0,2.513,7.0,2.386,7.0,2.942,5.0,2.736,10.0,3.069
248,1684379361009,3,-50,-80,1,6.054,5.0,2.01,7.0,2.321,1.0,2.054,8.0,1.542,8.0,2.016
248,1684379377787,4,-20,-50,1,0.904,9.0,2.637,7.0,2.221,4.0,2.105,7.0,1.701,8.0,1.526
248,1684379397530,5,-80,-50,2,0.913,3.0,2.923,8.0,1.827,6.0,3.705,5.0,3.377,8.0,2.326
248,1684379414337,6,-80,-20,2,0.696,0.0,3.189,10.0,2.135,7.0,2.668,6.0,1.874,8.0,1.55
248,1684379432524,7,80,-50,1,0.767,20.0,4.212,8.0,2.993,4.0,1.996,7.0,1.565,10.0,1.251
248,1684379452275,8,20,-80,1,0.739,14.0,6.852,6.0,1.929,1.0,1.879,7.0,1.594,10.0,1.575
248,1684379469622,9,-20,50,2,1.181,7.0,2.219,6.0,2.296,16.0,2.928,9.0,1.417,10.0,1.105
248,1684379485588,10,80,-80,1,0.841,19.0,3.457,9.0,1.388,1.0,1.936,9.0,1.689,10.0,1.467
248,1684379504449,11,50,-80,1,1.095,17.0,2.327,8.0,1.347,3.0,2.901,7.0,2.423,9.0,3.079
248,1684379522193,12,-20,80,2,1.028,9.0,1.963,6.0,2.531,20.0,2.459,10.0,2.218,9.0,1.404
248,1684379540609,13,-50,20,2,1.065,4.0,2.693,10.0,2.811,12.0,2.276,10.0,1.596,10.0,2.759
248,1684379557450,14,-50,50,2,0.928,3.0,2.932,8.0,1.452,15.0,2.992,8.0,1.632,9.0,1.412
248,1684379578672,15,20,-20,1,2.644,13.0,2.291,8.0,1.774,8.0,3.628,8.0,1.933,9.0,2.927
248,1684379595854,16,20,-50,1,0.896,13.0,3.87,7.0,1.859,3.0,2.954,9.0,1.582,10.0,1.059
248,1684379614076,17,-80,20,2,0.848,0.0,3.592,10.0,1.852,11.0,3.328,7.0,1.341,10.0,1.608
248,1684379633486,18,-80,80,2,0.617,2.0,4.044,8.0,1.885,17.0,3.943,8.0,1.33,10.0,2.373
248,1684379650473,19,50,-50,1,1.331,15.0,2.85,8.0,1.79,4.0,2.041,9.0,1.357,10.0,2.285
248,1684379677209,20,-80,50,2,1.346,1.0,2.173,8.0,2.155,20.0,5.73,0.0,8.832,10.0,2.177
248,1684379696807,21,50,-20,1,1.242,16.0,2.685,8.0,3.059,7.0,3.847,4.0,1.289,9.0,2.05
248,1684379715842,22,-50,80,2,0.782,3.0,3.299,8.0,3.087,18.0,2.938,7.0,1.967,9.0,1.73
248,1684379735335,23,-20,20,2,1.037,8.0,2.493,10.0,2.811,13.0,2.379,8.0,1.42,10.0,3.791
248,1684379752606,24,80,-20,1,1.379,17.0,4.17,8.0,1.799,9.0,1.905,7.0,2.22,10.0,1.762
248,1684379771780,25,50,80,2,1.33,15.0,2.587,5.0,1.382,19.0,3.926,8.0,2.465,10.0,1.82
248,1684379789301,26,80,20,1,0.733,18.0,3.294,8.0,1.69,11.0,3.436,5.0,1.536,10.0,1.578
248,1684379806593,27,50,20,1,0.81,16.0,1.605,7.0,3.214,13.0,2.774,8.0,1.692,9.0,1.724
248,1684379827087,28,20,50,2,1.278,13.0,1.812,8.0,1.384,14.0,6.795,8.0,1.645,9.0,2.078
248,1684379846782,29,20,80,2,0.551,12.0,4.293,4.0,2.507,19.0,3.469,9.0,2.273,10.0,1.076
248,1684379867220,30,80,50,1,0.993,20.0,1.927,3.0,2.662,15.0,5.38,8.0,1.266,10.0,2.934
249,1684379847555,1,-50,20,2,2.61,7.0,5.845,4.0,2.152,13.0,3.165,4.0,1.725,8.0,3.689
249,1684379867711,2,80,-20,1,1.134,18.0,2.365,5.0,2.748,8.0,2.249,4.0,2.406,8.0,2.779
249,1684379890816,3,-20,50,2,1.131,8.0,3.541,3.0,2.679,14.0,2.661,4.0,1.583,6.0,2.467
249,1684379912305,4,-20,20,2,1.021,8.0,1.863,2.0,2.783,15.0,2.326,2.0,2.182,8.0,2.859
249,1684379939646,5,50,-80,1,1.349,14.0,1.816,4.0,3.135,2.0,6.685,3.0,4.023,6.0,3.679
249,1684379963636,6,-50,50,2,0.861,7.0,6.556,2.0,2.646,13.0,2.119,5.0,3.029,7.0,2.147
249,1684379986091,7,80,-50,1,1.062,18.0,2.928,6.0,2.798,7.0,2.613,3.0,2.654,8.0,2.257
249,1684380007580,8,80,-80,1,0.966,18.0,2.428,6.0,3.007,2.0,2.046,5.0,1.662,8.0,3.107
249,1684380029803,9,-80,20,2,1.83,2.0,2.264,5.0,3.846,13.0,2.054,5.0,1.965,7.0,2.307
249,1684380054092,10,20,-80,1,1.086,13.0,2.007,4.0,4.287,2.0,1.942,4.0,2.551,7.0,4.436
249,1684380078048,11,20,-20,1,1.044,13.0,4.152,4.0,2.815,8.0,2.765,3.0,1.487,6.0,3.379
249,1684380102489,12,20,-50,1,0.918,13.0,1.764,4.0,2.303,7.0,2.862,3.0,3.471,7.0,3.233
249,1684380130213,13,-50,80,2,1.102,7.0,8.171,4.0,2.581,18.0,2.512,8.0,2.381,9.0,3.004
249,1684380156153,14,50,-50,1,1.031,13.0,3.542,4.0,4.119,7.0,1.982,2.0,3.358,7.0,3.931
249,1684380184310,15,50,-20,1,0.965,13.0,2.067,4.0,1.886,8.0,1.63,3.0,7.511,7.0,4.923
249,1684380204182,16,-80,80,2,0.982,2.0,2.317,7.0,2.807,18.0,2.311,9.0,1.813,9.0,2.323
249,1684380228388,17,-80,50,2,2.477,2.0,2.055,5.0,4.167,13.0,1.975,5.0,1.135,6.0,2.922
249,1684380249694,18,-20,80,2,0.894,8.0,3.107,3.0,3.487,18.0,2.31,8.0,1.535,9.0,2.091
249,1684380271116,19,50,80,2,0.893,13.0,2.65,3.0,3.733,18.0,2.012,8.0,1.983,9.0,1.691
249,1684380305575,20,50,20,1,1.662,13.0,1.735,3.0,2.397,11.0,15.565,2.0,3.933,5.0,3.402
249,1684380327931,21,20,80,2,0.814,11.0,3.279,1.0,4.127,18.0,2.069,9.0,2.078,9.0,2.115
249,1684380348053,22,80,20,1,1.078,18.0,1.902,9.0,2.607,11.0,2.397,2.0,2.382,9.0,2.146
249,1684380371942,23,20,50,2,1.03,11.0,2.193,2.0,3.175,13.0,1.83,4.0,4.303,6.0,2.658
249,1684380394666,24,80,50,1,2.079,18.0,2.217,6.0,3.598,13.0,1.822,3.0,4.335,7.0,3.635
249,1684380422523,25,-50,-80,1,2.765,8.0,2.872,3.0,1.431,2.0,2.598,3.0,3.359,5.0,4.499
249,1684380445362,26,-20,-50,2,1.886,8.0,1.662,3.0,1.933,8.0,2.502,4.0,1.839,4.0,5.819
249,1684380469168,27,-80,-20,2,1.399,2.0,2.915,4.0,2.838,8.0,2.341,4.0,2.111,5.0,3.492
249,1684380497775,28,-20,-80,1,1.581,7.0,2.333,4.0,4.589,2.0,6.693,4.0,2.215,5.0,3.851
249,1684380519098,29,-50,-20,1,2.831,8.0,2.264,4.0,2.037,8.0,1.934,3.0,1.462,3.0,3.171
249,1684380542255,30,-80,-50,2,1.263,2.0,2.066,4.0,2.502,7.0,3.334,3.0,2.471,5.0,3.403
250,1684382249954,1,-50,-80,1,2.91,12.0,2.384,6.0,1.176,12.0,1.255,6.0,1.415,7.0,3.654
250,1684382267670,2,-50,-20,1,1.101,15.0,2.772,8.0,1.435,6.0,1.7,3.0,1.127,7.0,2.375
250,1684382290270,3,-80,-20,2,2.454,13.0,1.369,0.0,2.454,7.0,1.723,4.0,1.358,7.0,2.444
250,1684382307504,4,-20,-50,1,0.989,6.0,1.838,3.0,1.374,9.0,1.519,4.0,1.331,5.0,2.051
250,1684382326753,5,-80,-50,1,1.471,13.0,1.877,1.0,2.792,9.0,2.47,4.0,1.186,5.0,2.804
250,1684382344371,6,-20,-80,1,0.81,9.0,1.458,3.0,1.929,5.0,1.603,3.0,1.617,3.0,1.522
250,1684382364287,7,-80,20,2,0.832,7.0,1.523,3.0,1.266,13.0,3.467,6.0,1.202,6.0,3.195
250,1684382381669,8,50,-50,1,1.618,14.0,2.579,7.0,1.386,7.0,1.813,4.0,1.031,6.0,1.654
250,1684382398419,9,20,-50,1,0.928,13.0,1.588,6.0,1.316,13.0,1.257,7.0,1.139,7.0,1.657
250,1684382448920,10,-20,20,2,2.198,7.0,4.608,4.0,10.931,13.0,2.419,7.0,1.087,7.0,1.417
250,1684382479153,11,80,-20,1,9.514,20.0,3.241,8.0,1.829,12.0,1.885,2.0,2.448,10.0,2.413
250,1684382504452,12,-50,80,2,1.516,6.0,3.962,4.0,1.476,18.0,4.168,8.0,2.445,8.0,2.416
250,1684382527418,13,-80,80,2,1.693,1.0,2.728,5.0,4.593,20.0,2.298,9.0,1.421,5.0,2.251
250,1684382550468,14,-80,50,2,1.205,4.0,2.127,6.0,6.394,16.0,2.368,7.0,1.537,7.0,1.501
250,1684382580852,15,50,-20,1,0.845,15.0,1.759,7.0,1.708,14.0,1.509,3.0,13.048,7.0,1.867
250,1684382597835,16,80,-50,1,0.955,20.0,2.2,9.0,1.82,7.0,2.094,4.0,1.078,8.0,1.419
250,1684382619119,17,-20,80,2,1.185,6.0,3.234,6.0,1.811,20.0,2.166,8.0,2.138,7.0,1.437
250,1684382641618,18,80,-80,1,0.829,17.0,2.119,9.0,1.283,15.0,1.328,1.0,2.797,9.0,2.187
250,1684382675768,19,-50,20,2,3.632,5.0,8.621,6.0,2.352,15.0,1.711,8.0,1.161,6.0,1.788
250,1684382693017,20,-20,50,2,1.356,5.0,3.708,7.0,1.296,18.0,2.027,8.0,1.564,8.0,1.501
250,1684382709901,21,50,-80,1,0.955,15.0,1.539,8.0,1.182,2.0,1.666,8.0,1.202,7.0,2.386
250,1684382731584,22,-50,50,2,0.781,13.0,5.131,0.0,2.17,17.0,2.285,3.0,2.149,7.0,1.559
250,1684382751300,23,20,-80,1,0.934,15.0,1.592,8.0,2.589,5.0,1.823,7.0,1.152,6.0,3.075
250,1684382809764,24,20,-20,1,0.869,15.0,1.719,8.0,1.685,4.0,1.708,7.0,1.608,7.0,2.317
250,1684382829284,25,80,50,1,0.886,19.0,2.383,8.0,1.762,16.0,2.273,6.0,1.319,9.0,1.396
250,1684382855202,26,20,50,2,0.857,12.0,5.523,7.0,2.384,14.0,1.529,8.0,1.794,7.0,1.662
250,1684382874917,27,20,80,2,0.726,17.0,1.674,9.0,1.034,19.0,2.27,9.0,1.531,9.0,1.699
250,1684382892884,28,50,20,1,0.694,14.0,1.257,8.0,1.168,14.0,2.395,7.0,1.194,9.0,2.14
250,1684382908684,29,50,80,2,0.727,15.0,1.608,7.0,0.985,19.0,1.922,8.0,1.033,7.0,1.818
250,1684382924866,30,80,20,2,0.911,14.0,1.698,8.0,0.924,16.0,1.712,8.0,0.994,7.0,1.777
251,1684379732935,1,-80,-50,2,1.246,2.0,2.889,8.0,2.42,5.0,3.686,8.0,2.093,10.0,3.644
251,1684379754976,2,-20,-50,1,1.389,8.0,4.729,8.0,1.984,5.0,2.525,8.0,1.604,8.0,3.402
251,1684379776950,3,-20,-80,1,1.3,8.0,2.091,8.0,2.319,2.0,2.86,8.0,2.249,10.0,2.181
251,1684379797192,4,-50,-20,2,1.069,5.0,2.617,8.0,2.277,8.0,2.031,8.0,3.16,8.0,1.434
251,1684379813452,5,-80,-20,2,1.101,2.0,1.885,8.0,1.039,8.0,2.008,8.0,1.915,10.0,1.683
251,1684379832876,6,-50,-80,1,3.44,5.0,3.192,8.0,1.036,2.0,2.593,8.0,1.185,8.0,1.327
251,1684379854034,7,50,-80,1,0.804,15.0,3.499,8.0,1.906,2.0,3.362,8.0,1.954,10.0,1.225
251,1684379877407,8,80,-50,1,1.014,18.0,4.469,8.0,2.726,5.0,3.417,8.0,1.906,10.0,1.079
251,1684379899416,9,20,-80,1,0.658,12.0,5.319,7.0,3.255,2.0,2.232,8.0,1.232,10.0,1.356
251,1684379922122,10,50,-20,1,1.17,15.0,3.791,8.0,2.798,8.0,3.481,8.0,1.93,10.0,1.852
251,1684379942997,11,20,-50,1,1.54,12.0,2.322,7.0,2.743,5.0,2.201,8.0,2.558,10.0,1.359
251,1684379969918,12,-20,20,2,1.037,8.0,3.102,8.0,1.76,12.0,1.757,6.0,4.442,8.0,5.418
251,1684379989694,13,-80,80,2,1.153,2.0,3.02,8.0,1.248,18.0,2.158,8.0,1.324,10.0,2.776
251,1684380009185,14,50,-50,1,0.893,15.0,2.228,8.0,3.186,5.0,2.55,8.0,1.489,10.0,1.403
251,1684380035241,15,-20,80,2,1.269,8.0,8.646,8.0,1.752,18.0,2.146,8.0,1.922,10.0,1.358
251,1684380050818,16,-50,50,2,0.878,5.0,1.866,8.0,1.17,15.0,1.774,8.0,1.481,10.0,1.185
251,1684380074708,17,-50,80,2,0.846,5.0,3.209,7.0,6.674,18.0,2.379,8.0,1.54,10.0,1.167
251,1684380096114,18,20,-20,1,0.769,12.0,2.317,7.0,4.768,8.0,2.162,8.0,1.17,7.0,2.334
251,1684380124785,19,80,-20,1,0.581,18.0,11.513,8.0,1.705,8.0,2.426,8.0,1.72,10.0,1.613
251,1684380140013,20,80,-80,1,0.889,18.0,2.119,8.0,1.877,2.0,1.991,8.0,1.217,10.0,1.38
251,1684380156789,21,-80,50,2,0.736,2.0,1.855,8.0,1.75,15.0,1.939,8.0,1.511,10.0,1.156
251,1684380175564,22,-20,50,2,0.837,8.0,2.394,8.0,1.742,15.0,2.65,8.0,2.673,10.0,1.187
251,1684380195673,23,-50,20,2,0.936,5.0,3.154,8.0,1.332,12.0,2.357,7.0,2.084,8.0,1.65
251,1684380210250,24,-80,20,2,0.645,2.0,1.865,8.0,1.905,12.0,1.765,7.0,1.991,10.0,1.278
251,1684380227826,25,20,80,2,0.629,12.0,1.794,7.0,1.596,18.0,1.58,8.0,1.852,10.0,1.31
251,1684380247551,26,50,20,1,0.991,15.0,2.075,8.0,1.858,12.0,1.595,7.0,2.335,9.0,3.599
251,1684380267709,27,80,50,1,0.962,18.0,2.393,8.0,1.992,15.0,3.154,8.0,1.146,9.0,1.667
251,1684380289867,28,50,80,2,0.613,15.0,2.504,8.0,5.246,18.0,1.997,8.0,2.27,9.0,1.217
251,1684380306877,29,20,50,2,0.721,12.0,1.756,7.0,2.721,15.0,1.913,8.0,0.858,9.0,1.591
251,1684380326434,30,80,20,1,1.023,18.0,1.938,8.0,2.114,12.0,2.078,7.0,3.347,10.0,1.31
253,1684379500280,1,-80,80,2,0.898,0.0,3.569,5.0,1.099,5.0,6.245,3.0,2.089,7.0,3.634
253,1684379519047,2,20,-80,1,0.968,8.0,4.117,9.0,2.523,0.0,2.439,9.0,1.442,10.0,2.394
253,1684379534648,3,50,-80,1,0.797,4.0,2.425,8.0,2.284,1.0,1.619,10.0,0.828,10.0,1.971
253,1684379550019,4,-50,50,1,0.782,13.0,2.799,3.0,1.892,5.0,1.979,9.0,1.162,9.0,1.455
253,1684379564244,5,20,-50,2,0.525,8.0,1.662,10.0,2.332,13.0,2.125,6.0,1.677,9.0,1.192
253,1684379587762,6,20,-20,1,0.764,8.0,3.202,8.0,2.635,4.0,7.858,2.0,2.426,8.0,1.938
253,1684379626957,7,80,-20,2,3.454,16.0,5.406,5.0,5.154,10.0,17.21,5.0,0.814,2.0,1.735
253,1684379643230,8,80,-50,2,0.504,17.0,3.042,0.0,1.79,12.0,1.666,4.0,2.187,2.0,1.546
253,1684379660428,9,50,-20,2,0.545,5.0,2.981,8.0,1.996,13.0,2.375,8.0,1.873,6.0,1.387
253,1684379677230,10,-50,20,1,0.606,12.0,2.354,4.0,1.704,8.0,2.242,10.0,2.148,10.0,1.489
253,1684379692678,11,-80,50,2,0.717,2.0,2.785,10.0,1.31,5.0,1.518,8.0,1.384,9.0,1.202
253,1684379707687,12,80,-80,1,0.701,18.0,2.336,8.0,1.647,2.0,2.178,10.0,1.25,9.0,1.152
253,1684379722843,13,-50,80,2,0.461,12.0,3.024,8.0,1.628,18.0,2.594,9.0,0.882,10.0,1.336
253,1684379739401,14,-80,20,2,1.544,2.0,1.937,10.0,1.826,9.0,1.831,7.0,1.75,10.0,2.082
253,1684379755113,15,50,-50,2,0.512,5.0,2.887,8.0,1.404,13.0,1.97,8.0,1.063,9.0,1.151
253,1684379770887,16,-20,50,1,1.04,14.0,2.826,9.0,1.378,4.0,1.631,8.0,1.113,8.0,2.202
253,1684379787015,17,-20,20,1,0.854,14.0,3.926,8.0,1.699,8.0,1.472,10.0,1.185,10.0,1.245
253,1684379801129,18,-20,80,2,0.573,13.0,3.263,6.0,0.872,18.0,1.349,10.0,0.817,9.0,1.66
253,1684379822515,19,-20,-80,1,0.671,14.0,1.654,3.0,3.57,2.0,1.521,10.0,0.95,10.0,7.25
253,1684379867600,20,-80,-50,2,0.994,2.0,31.19,10.0,2.756,13.0,2.282,8.0,1.542,10.0,1.955
253,1684379888604,21,-50,-20,2,2.467,13.0,3.084,9.0,2.337,13.0,2.406,8.0,1.887,3.0,3.608
253,1684379903308,22,-50,-80,1,0.638,12.0,2.657,9.0,1.329,2.0,1.944,10.0,0.951,10.0,1.462
253,1684379945399,23,-80,-20,2,1.412,1.0,28.219,10.0,1.779,14.0,1.473,9.0,1.653,9.0,2.096
253,1684379974002,24,-20,-50,2,1.373,15.0,2.322,7.0,1.377,12.0,2.053,8.0,1.389,6.0,16.022
253,1684379990387,25,20,80,2,1.03,8.0,1.299,9.0,3.152,17.0,2.576,8.0,0.874,10.0,1.171
253,1684380005105,26,50,80,2,1.199,4.0,1.537,9.0,1.702,18.0,1.679,9.0,2.004,10.0,1.633
253,1684380032318,27,50,20,2,3.13,5.0,6.647,7.0,2.063,8.0,5.633,9.0,2.189,9.0,2.097
253,1684380049863,28,20,50,1,1.009,8.0,1.988,9.0,2.087,4.0,1.712,9.0,2.144,10.0,2.944
253,1684380071361,29,80,20,1,1.059,18.0,1.624,9.0,4.917,7.0,1.386,7.0,4.409,10.0,1.615
253,1684380086982,30,80,50,1,0.879,19.0,1.7,10.0,1.298,4.0,1.523,9.0,2.725,10.0,2.158
254,1684380118249,1,-20,-80,1,3.951,8.0,10.373,9.0,1.92,2.0,5.7,9.0,2.926,10.0,3.888
254,1684380147051,2,-50,-80,1,0.766,5.0,10.506,8.0,2.773,1.0,2.86,8.0,2.55,10.0,2.885
254,1684380176950,3,-20,-50,1,1.081,7.0,3.242,8.0,6.852,4.0,3.181,8.0,4.826,10.0,1.684
254,1684380200019,4,-80,-50,2,1.236,1.0,2.736,9.0,2.277,4.0,3.319,6.0,2.332,10.0,3.356
254,1684380220768,5,-80,-20,2,0.729,0.0,7.056,9.0,1.372,7.0,2.232,9.0,1.287,10.0,1.414
254,1684380238335,6,-50,-20,2,0.652,5.0,3.091,9.0,1.86,9.0,2.719,8.0,1.297,10.0,1.318
254,1684380263604,7,-50,20,2,0.85,7.0,2.188,9.0,1.83,12.0,8.268,9.0,2.506,10.0,1.27
254,1684380285789,8,50,-80,1,2.166,18.0,3.443,9.0,1.893,2.0,3.287,9.0,1.536,10.0,1.683
254,1684380321938,9,-20,80,2,0.859,8.0,4.413,9.0,1.401,18.0,17.132,9.0,1.68,10.0,1.808
254,1684380341889,10,-80,80,2,0.961,1.0,3.14,8.0,1.28,19.0,2.656,9.0,1.075,10.0,1.28
254,1684380360588,11,-50,80,2,0.647,5.0,2.53,8.0,0.942,20.0,2.296,10.0,2.778,10.0,1.204
254,1684380394324,12,-80,20,2,1.286,3.0,3.888,9.0,1.161,13.0,13.94,7.0,1.596,10.0,2.51
254,1684380416592,13,50,-50,1,1.183,18.0,6.277,8.0,1.527,6.0,2.688,8.0,1.089,10.0,1.462
254,1684380438394,14,-20,20,2,0.702,8.0,5.635,7.0,2.651,12.0,3.127,8.0,0.866,10.0,1.136
254,1684380456210,15,-20,50,2,0.723,7.0,1.953,7.0,0.89,16.0,2.445,9.0,1.621,10.0,1.142
254,1684380476095,16,20,-80,1,1.075,12.0,3.519,7.0,1.663,2.0,3.73,8.0,1.206,10.0,1.335
254,1684380497811,17,50,-20,1,1.269,15.0,3.534,9.0,1.403,9.0,2.884,8.0,3.055,10.0,1.9
254,1684380520327,18,20,-20,1,1.801,13.0,4.499,8.0,1.969,8.0,3.403,6.0,1.636,10.0,1.31
254,1684380538644,19,20,-50,1,0.835,11.0,3.068,8.0,1.461,5.0,2.238,8.0,0.932,10.0,1.549
254,1684380555211,20,-50,50,2,0.963,4.0,2.262,9.0,2.089,17.0,2.491,9.0,1.515,10.0,1.485
254,1684380574479,21,80,-80,1,1.064,19.0,2.871,9.0,1.291,2.0,3.44,9.0,1.515,10.0,1.193
254,1684380595213,22,80,-20,1,0.867,18.0,2.149,6.0,4.167,8.0,2.735,7.0,2.003,10.0,1.462
254,1684380618432,23,80,-50,1,0.779,18.0,6.122,8.0,1.411,5.0,3.709,8.0,1.084,10.0,1.614
254,1684380634514,24,-80,50,2,1.087,3.0,2.288,8.0,1.221,15.0,2.992,7.0,1.57,10.0,1.803
254,1684380656032,25,20,50,2,0.704,13.0,4.703,7.0,1.062,16.0,2.552,8.0,1.167,10.0,1.246
254,1684380674548,26,80,20,1,1.154,20.0,2.106,8.0,1.693,13.0,2.836,8.0,1.992,10.0,1.482
254,1684380694449,27,50,80,2,0.603,15.0,2.297,6.0,2.967,17.0,2.797,9.0,1.453,10.0,1.257
254,1684380710698,28,80,50,1,0.81,18.0,2.595,7.0,0.907,16.0,2.158,8.0,1.287,10.0,1.135
254,1684380727817,29,50,20,1,0.929,15.0,2.433,7.0,0.925,12.0,1.954,7.0,1.413,10.0,1.386
254,1684380743816,30,20,80,2,0.667,13.0,2.574,8.0,1.071,19.0,1.702,8.0,1.23,10.0,1.072
256,1684380289950,1,-80,-20,2,1.369,1.0,22.766,3.0,4.854,9.0,10.527,4.0,3.63,7.0,5.163
256,1684380331015,2,-80,-50,2,1.94,2.0,5.903,1.0,7.605,4.0,9.143,1.0,5.676,5.0,3.719
256,1684380364314,3,-20,-50,1,2.133,10.0,4.549,1.0,2.842,6.0,7.387,1.0,3.562,2.0,3.527
256,1684380394012,4,-20,-80,2,1.181,12.0,5.972,0.0,3.589,10.0,4.312,0.0,4.146,0.0,2.834
256,1684380427660,5,-50,-20,1,0.924,16.0,6.799,0.0,3.161,3.0,9.677,0.0,3.167,0.0,3.285
256,1684380458675,6,-50,-80,2,1.381,12.0,5.502,0.0,4.963,18.0,7.088,0.0,2.783,0.0,2.666
256,1684380494374,7,80,20,1,1.769,19.0,12.242,0.0,3.298,12.0,3.641,0.0,3.325,0.0,3.054
256,1684380523538,8,50,20,1,1.569,16.0,4.025,0.0,3.616,14.0,5.299,0.0,3.428,0.0,3.647
256,1684380553654,9,80,50,1,1.007,20.0,3.936,0.0,3.722,15.0,7.415,1.0,2.817,0.0,3.252
256,1684380581136,10,20,80,2,1.747,13.0,3.244,0.0,2.818,19.0,4.429,0.0,3.262,0.0,4.627
256,1684380607435,11,50,80,2,0.987,16.0,3.937,0.0,2.536,19.0,4.082,0.0,2.756,0.0,3.109
256,1684380636633,12,20,50,2,1.632,11.0,3.507,0.0,3.123,16.0,3.296,0.0,4.889,0.0,2.652
256,1684380667516,13,80,-50,1,1.105,17.0,5.377,0.0,2.603,2.0,7.914,1.0,2.733,1.0,3.083
256,1684380690631,14,-20,50,2,0.912,7.0,3.003,1.0,3.034,16.0,3.03,1.0,2.684,1.0,2.42
256,1684380717297,15,50,-50,1,0.94,14.0,3.758,2.0,2.015,4.0,5.103,1.0,2.902,2.0,2.709
256,1684380747195,16,-80,50,2,1.266,1.0,4.547,1.0,4.918,14.0,6.521,2.0,2.861,2.0,2.514
256,1684380772810,17,-20,80,2,1.276,7.0,3.041,0.0,2.574,19.0,4.146,2.0,2.647,2.0,3.94
256,1684380802942,18,-50,20,2,1.386,3.0,5.194,1.0,3.125,12.0,4.013,1.0,6.037,2.0,2.484
256,1684380829425,19,20,-80,1,1.188,13.0,3.529,1.0,3.669,1.0,3.244,1.0,3.384,2.0,3.208
256,1684380852607,20,-20,20,2,1.162,7.0,5.989,2.0,2.518,12.0,3.143,2.0,1.995,3.0,2.611
256,1684380876422,21,80,-80,1,1.381,17.0,3.502,2.0,2.273,2.0,3.737,2.0,2.136,3.0,2.407
256,1684380906471,22,20,-20,1,1.266,13.0,4.043,1.0,4.095,7.0,3.603,2.0,2.439,2.0,7.153
256,1684380936419,23,50,-80,1,1.596,14.0,5.54,2.0,2.596,3.0,2.787,2.0,2.637,2.0,5.891
256,1684380960534,24,20,-50,1,1.825,12.0,3.398,2.0,2.955,6.0,4.019,2.0,3.435,2.0,3.334
256,1684380988017,25,-50,80,2,1.782,5.0,4.44,2.0,1.964,17.0,4.637,3.0,3.241,2.0,2.514
256,1684381013449,26,-80,80,2,1.145,0.0,5.337,3.0,2.039,20.0,3.595,5.0,2.968,4.0,2.772
256,1684381039548,27,-50,50,2,1.176,5.0,2.91,3.0,3.481,14.0,4.284,2.0,3.209,4.0,2.367
256,1684381066513,28,50,-20,1,1.215,13.0,6.348,2.0,3.176,9.0,3.181,1.0,3.043,2.0,2.413
256,1684381092578,29,80,-20,1,1.829,18.0,4.414,3.0,2.906,9.0,3.371,3.0,2.678,4.0,2.611
256,1684381125027,30,-80,20,2,2.108,3.0,4.293,3.0,8.458,11.0,4.076,2.0,2.763,3.0,2.834
257,1684381182435,1,-50,-20,2,1.749,6.0,3.482,9.0,1.955,8.0,1.966,9.0,0.817,10.0,2.859
257,1684381198232,2,-20,-80,1,1.266,8.0,1.611,9.0,1.138,1.0,1.8,10.0,0.957,10.0,2.764
257,1684381215491,3,-50,-80,1,1.003,4.0,1.77,10.0,1.483,0.0,1.665,10.0,0.864,9.0,1.849
257,1684381233598,4,-20,-50,1,0.993,7.0,3.622,9.0,1.033,5.0,2.141,10.0,1.186,10.0,1.818
257,1684381248726,5,-80,-20,2,1.024,2.0,1.78,10.0,1.591,8.0,1.918,10.0,0.916,10.0,1.525
257,1684381263513,6,-80,-50,2,1.008,2.0,1.813,9.0,1.344,4.0,1.448,9.0,1.171,10.0,1.586
257,1684381284007,7,50,20,1,1.181,14.0,4.421,8.0,1.607,12.0,2.687,9.0,1.256,9.0,1.608
257,1684381302929,8,20,80,2,0.641,12.0,1.548,10.0,0.912,18.0,1.617,9.0,1.278,10.0,5.337
257,1684381321459,9,80,50,1,0.762,18.0,2.89,9.0,1.093,14.0,1.836,9.0,0.995,10.0,2.048
257,1684381340751,10,50,80,2,0.97,14.0,1.507,9.0,0.98,18.0,2.039,9.0,1.297,10.0,4.108
257,1684381357465,11,20,50,2,0.58,12.0,1.562,9.0,1.466,14.0,2.222,9.0,0.846,10.0,1.677
257,1684381376231,12,80,20,1,1.313,17.0,2.241,10.0,0.836,12.0,2.424,9.0,1.319,10.0,1.474
257,1684381393789,13,20,-80,1,0.799,12.0,2.239,9.0,0.883,1.0,2.184,9.0,1.863,10.0,1.692
257,1684381409846,14,50,-50,1,0.774,14.0,1.829,9.0,1.282,5.0,1.581,9.0,1.674,10.0,1.556
257,1684381428794,15,20,-20,1,0.635,12.0,3.368,9.0,1.228,7.0,2.18,9.0,1.426,10.0,1.653
257,1684381444805,16,-50,80,2,0.558,6.0,2.267,9.0,1.17,17.0,2.174,9.0,1.112,9.0,1.492
257,1684381462806,17,-80,80,2,1.018,2.0,1.638,9.0,1.694,18.0,2.991,9.0,1.112,10.0,1.56
257,1684381477394,18,-20,50,2,0.566,8.0,1.565,9.0,1.269,14.0,1.623,10.0,0.919,10.0,0.962
257,1684381495557,19,50,-80,1,0.886,14.0,2.983,9.0,1.246,1.0,1.761,9.0,1.571,10.0,1.696
257,1684381509319,20,80,-20,1,0.919,18.0,1.902,10.0,1.089,8.0,1.477,9.0,1.373,10.0,1.459
257,1684381526528,21,-50,20,2,0.849,5.0,1.595,9.0,0.787,12.0,2.448,9.0,0.999,9.0,2.773
257,1684381543459,22,80,-80,1,1.033,18.0,2.063,10.0,2.01,1.0,1.543,9.0,1.131,10.0,2.005
257,1684381560451,23,-50,50,2,0.724,5.0,1.72,10.0,1.513,14.0,1.937,9.0,1.307,10.0,1.598
257,1684381572973,24,50,-20,1,0.925,15.0,1.967,10.0,0.787,8.0,1.583,10.0,1.009,10.0,1.231
257,1684381590025,25,-80,20,2,0.965,2.0,2.086,9.0,1.791,12.0,1.945,10.0,0.909,10.0,0.891
257,1684381604994,26,20,-50,1,0.788,12.0,1.795,9.0,0.832,4.0,2.459,9.0,0.951,10.0,1.12
257,1684381621947,27,-20,20,2,0.618,8.0,2.105,9.0,1.374,12.0,1.525,10.0,1.397,10.0,1.855
257,1684381637342,28,80,-50,1,0.763,17.0,2.292,10.0,0.881,5.0,1.622,9.0,1.056,10.0,1.608
257,1684381666717,29,-80,50,2,0.537,2.0,3.956,10.0,1.698,14.0,12.706,10.0,1.905,10.0,1.191
257,1684381683363,30,-20,80,2,0.9,8.0,2.381,9.0,1.117,18.0,2.638,9.0,1.179,10.0,1.106
259,1684380052773,1,-20,-50,2,1.908,4.0,3.797,2.0,3.567,15.0,3.197,3.0,2.246,6.0,3.917
259,1684380079527,2,-50,-80,1,1.837,15.0,5.106,2.0,2.319,6.0,5.392,2.0,1.802,7.0,3.527
259,1684380102590,3,-80,-20,1,2.049,6.0,2.964,1.0,2.238,4.0,3.741,2.0,2.196,1.0,2.935
259,1684380129203,4,-20,-80,2,2.261,6.0,2.673,1.0,3.389,6.0,5.733,1.0,2.586,0.0,3.582
259,1684380151656,5,-50,-20,1,1.362,15.0,2.874,1.0,3.132,5.0,4.102,1.0,2.183,7.0,3.759
259,1684380170961,6,-80,-50,2,0.981,6.0,2.394,1.0,1.596,15.0,3.157,1.0,2.834,7.0,3.319
259,1684380198310,7,80,-80,1,1.388,18.0,3.459,1.0,2.451,6.0,3.183,1.0,7.423,7.0,3.665
259,1684380219635,8,20,-80,1,1.458,12.0,3.024,1.0,1.612,6.0,2.468,1.0,4.595,7.0,1.969
259,1684380258443,9,-20,50,2,1.33,6.0,14.939,1.0,2.227,14.0,4.067,0.0,2.977,5.0,3.165
259,1684380287493,10,-50,80,2,0.967,15.0,2.246,1.0,11.294,18.0,3.458,1.0,2.35,1.0,3.13
259,1684380313377,11,-50,20,1,4.262,15.0,2.614,1.0,1.717,13.0,4.143,2.0,2.454,6.0,4.572
259,1684380334160,12,-20,80,2,1.131,6.0,2.807,1.0,2.007,16.0,2.394,2.0,3.522,6.0,2.378
259,1684380358424,13,-20,20,2,1.543,6.0,2.268,1.0,2.823,12.0,4.424,6.0,3.206,6.0,4.305
259,1684380410986,14,50,-50,2,2.927,15.0,6.791,1.0,26.073,15.0,3.111,1.0,3.686,0.0,2.951
259,1684380436573,15,50,-80,1,1.51,17.0,5.834,1.0,2.745,5.0,2.762,1.0,3.062,7.0,2.685
259,1684380469306,16,20,-20,1,1.005,12.0,8.011,1.0,8.93,5.0,2.629,1.0,3.466,7.0,3.194
259,1684380500753,17,80,-50,1,1.262,20.0,5.822,2.0,5.026,15.0,2.569,1.0,2.443,6.0,2.283
259,1684380521303,18,20,-50,2,1.009,10.0,4.065,1.0,3.151,15.0,2.717,1.0,2.109,5.0,1.709
259,1684380549731,19,80,-20,1,1.121,19.0,5.246,1.0,2.8,5.0,4.201,1.0,6.222,7.0,2.601
259,1684380578352,20,-80,80,2,0.813,5.0,3.543,1.0,2.499,16.0,2.454,1.0,2.295,7.0,12.47
259,1684380599936,21,50,-20,1,1.231,13.0,2.747,1.0,2.302,5.0,3.153,1.0,2.577,1.0,3.614
259,1684380622539,22,-80,50,2,0.678,5.0,5.331,1.0,2.787,15.0,4.227,1.0,1.948,7.0,2.135
259,1684380654952,23,-80,20,2,1.374,7.0,3.581,1.0,3.424,12.0,13.413,1.0,1.891,7.0,2.793
259,1684380682482,24,-50,50,1,1.193,15.0,2.341,1.0,2.287,13.0,4.896,1.0,3.036,3.0,9.493
259,1684380710385,25,80,50,1,0.838,18.0,7.424,1.0,2.345,15.0,6.033,1.0,2.224,5.0,1.476
259,1684380734565,26,20,80,2,1.906,13.0,3.172,1.0,3.295,16.0,2.491,1.0,2.888,3.0,4.752
259,1684380754564,27,50,20,1,1.244,14.0,3.376,1.0,2.411,11.0,2.382,1.0,2.433,5.0,2.207
259,1684380774002,28,50,80,2,1.349,14.0,2.837,1.0,1.766,18.0,2.476,1.0,2.044,1.0,2.651
259,1684380798411,29,80,20,1,0.898,19.0,6.778,1.0,2.042,11.0,3.32,1.0,2.131,4.0,3.235
259,1684380846165,30,20,50,2,1.395,11.0,2.917,1.0,2.629,14.0,30.645,1.0,2.886,3.0,1.741
260,1684382040705,1,-80,-20,1,2.823,4.0,2.907,8.0,1.257,3.0,2.718,8.0,3.085,9.0,1.934
260,1684382055879,2,-80,-50,2,0.507,6.0,2.519,8.0,1.687,17.0,1.746,8.0,0.985,8.0,3.237
260,1684382073648,3,-50,-20,2,0.502,17.0,2.153,8.0,1.423,4.0,1.977,8.0,1.435,2.0,4.236
260,1684382088751,4,-50,-80,1,0.89,18.0,2.199,8.0,1.169,4.0,2.243,8.0,1.693,9.0,1.664
260,1684382104204,5,-20,-50,2,0.953,4.0,2.254,8.0,1.345,17.0,2.459,7.0,1.705,8.0,2.177
260,1684382118792,6,-20,-80,2,1.215,5.0,3.304,7.0,1.156,5.0,1.557,8.0,1.322,8.0,1.477
260,1684382133125,7,-80,80,2,0.875,5.0,2.749,8.0,1.071,17.0,1.987,8.0,1.017,8.0,1.459
260,1684382147797,8,50,-20,1,0.975,17.0,1.819,8.0,0.913,6.0,2.372,8.0,1.361,8.0,2.065
260,1684382163820,9,80,-50,1,0.979,17.0,3.298,8.0,1.813,16.0,1.949,7.0,1.083,8.0,1.356
260,1684382178542,10,20,-20,1,0.631,15.0,2.521,8.0,1.183,4.0,2.142,8.0,0.817,8.0,2.279
260,1684382193606,11,20,-50,1,0.703,16.0,1.84,7.0,1.0,14.0,1.878,7.0,0.89,7.0,3.044
260,1684382213999,12,-50,50,2,2.046,15.0,2.236,7.0,2.474,14.0,4.175,7.0,1.641,8.0,2.058
260,1684382230805,13,-80,50,2,1.448,4.0,2.725,7.0,1.032,16.0,2.862,7.0,2.09,8.0,1.626
260,1684382247489,14,-80,20,2,1.255,3.0,2.745,7.0,1.133,16.0,2.504,7.0,1.749,7.0,1.917
260,1684382262863,15,-20,80,2,0.768,3.0,2.306,7.0,1.444,14.0,1.656,7.0,1.156,8.0,1.958
260,1684382277899,16,-20,20,2,2.145,3.0,2.048,7.0,1.254,15.0,1.428,8.0,1.106,8.0,2.186
260,1684382292706,17,-20,50,2,1.08,4.0,2.258,7.0,0.862,16.0,1.468,7.0,2.4,8.0,1.481
260,1684382309479,18,20,-80,1,0.817,16.0,2.505,7.0,1.529,5.0,1.971,7.0,2.868,8.0,1.805
260,1684382323430,19,80,-20,1,0.925,17.0,1.637,8.0,1.576,3.0,1.655,7.0,0.999,7.0,1.886
260,1684382336751,20,80,-80,1,0.657,14.0,1.548,8.0,1.742,2.0,2.43,8.0,1.004,7.0,1.715
260,1684382350338,21,-50,20,2,0.697,15.0,1.492,7.0,1.023,16.0,2.3,8.0,1.156,7.0,1.334
260,1684382367508,22,50,-80,1,0.817,15.0,1.826,7.0,1.846,5.0,3.963,8.0,1.011,8.0,2.559
260,1684382382197,23,50,-50,1,0.91,17.0,1.545,8.0,1.396,13.0,1.875,8.0,1.763,7.0,1.995
260,1684382394833,24,-50,80,2,0.854,15.0,1.938,7.0,0.891,14.0,2.024,7.0,1.066,7.0,1.868
260,1684382409759,25,20,50,1,1.242,15.0,1.389,7.0,0.969,15.0,2.706,7.0,1.009,7.0,1.768
260,1684382427995,26,50,80,2,1.605,14.0,2.408,7.0,1.311,16.0,3.574,8.0,2.279,8.0,1.844
260,1684382441485,27,80,20,1,1.128,14.0,1.96,7.0,1.018,15.0,1.705,7.0,1.248,7.0,1.221
260,1684382455520,28,80,50,1,0.723,16.0,2.307,8.0,1.089,15.0,1.38,8.0,0.934,8.0,2.034
260,1684382473180,29,50,20,1,2.306,15.0,3.032,7.0,0.952,15.0,1.655,8.0,2.254,8.0,2.322
260,1684382486246,30,20,80,2,1.025,15.0,2.198,8.0,1.021,15.0,1.092,7.0,1.087,8.0,1.462
261,1684383728458,1,50,80,2,0.785,15.0,5.269,1.0,1.242,18.0,3.349,1.0,1.238,10.0,2.678
261,1684383744825,2,20,80,2,0.785,12.0,2.73,1.0,1.634,18.0,1.725,5.0,1.401,10.0,1.524
261,1684383770341,3,20,50,2,1.971,12.0,2.274,7.0,4.176,15.0,2.946,2.0,1.674,5.0,3.312
261,1684383788958,4,50,20,1,0.962,15.0,2.664,1.0,1.5,12.0,3.116,1.0,1.102,10.0,1.55
261,1684383804692,5,80,50,1,1.043,18.0,2.321,1.0,1.167,15.0,2.089,1.0,1.321,10.0,1.136
261,1684383818626,6,80,20,1,0.844,18.0,1.84,1.0,1.097,12.0,1.872,1.0,0.712,10.0,0.934
261,1684383844259,7,-50,-20,2,0.672,5.0,7.818,1.0,3.75,8.0,1.907,5.0,1.964,10.0,1.434
261,1684383905259,8,-80,-50,2,1.26,2.0,42.592,1.0,1.935,5.0,1.811,1.0,4.626,10.0,1.503
261,1684383923759,9,-20,-80,1,0.647,8.0,2.117,7.0,1.902,2.0,2.131,1.0,1.543,10.0,1.527
261,1684383940860,10,-50,-80,1,0.77,4.0,3.168,1.0,0.985,2.0,1.616,5.0,2.342,10.0,1.069
261,1684383960376,11,-80,-20,2,0.75,2.0,1.739,5.0,2.428,8.0,1.407,2.0,1.825,10.0,2.408
261,1684383978493,12,-20,-50,1,0.759,8.0,1.92,1.0,0.941,4.0,3.04,1.0,0.899,10.0,0.909
261,1684383996343,13,50,-20,1,0.697,15.0,2.6,1.0,1.941,8.0,2.676,1.0,0.934,10.0,1.03
261,1684384030677,14,-50,80,2,1.249,4.0,19.087,1.0,0.789,18.0,2.047,2.0,0.794,10.0,1.369
261,1684384051144,15,20,-50,1,1.521,12.0,1.56,2.0,1.46,4.0,2.43,1.0,1.929,10.0,2.259
261,1684384065361,16,-20,80,2,0.496,8.0,1.388,1.0,1.673,18.0,1.817,1.0,0.707,10.0,0.889
261,1684384081444,17,20,-20,1,0.676,12.0,1.778,1.0,1.126,8.0,2.258,1.0,1.221,10.0,1.236
261,1684384099294,18,50,-80,1,0.988,15.0,3.669,1.0,1.212,2.0,2.064,1.0,0.793,10.0,1.245
261,1684384115078,19,50,-50,1,0.749,15.0,1.605,1.0,0.962,4.0,2.318,1.0,0.736,10.0,1.115
261,1684384127844,20,-80,20,2,1.125,2.0,1.866,1.0,0.749,12.0,1.533,1.0,0.758,10.0,0.986
261,1684384143228,21,-80,80,2,0.533,2.0,1.455,1.0,1.391,18.0,1.413,1.0,1.4,10.0,1.302
261,1684384159478,22,80,-80,1,0.82,18.0,3.124,1.0,0.751,2.0,1.429,1.0,1.019,10.0,1.374
261,1684384178078,23,-20,50,2,0.525,8.0,3.001,1.0,1.851,15.0,1.971,1.0,1.02,10.0,1.721
261,1684384192045,24,-50,20,2,0.544,5.0,3.557,1.0,0.805,12.0,1.451,1.0,0.735,10.0,1.753
261,1684384211195,25,20,-80,1,1.297,12.0,2.047,1.0,0.934,2.0,2.082,1.0,1.93,10.0,1.043
261,1684384227045,26,80,-50,1,1.067,18.0,1.695,1.0,1.387,4.0,2.027,1.0,1.046,10.0,1.378
261,1684384245312,27,80,-20,1,0.97,18.0,2.387,1.0,2.001,8.0,2.096,1.0,1.151,10.0,1.141
261,1684384265078,28,-50,50,2,1.757,4.0,3.335,1.0,1.329,15.0,1.602,1.0,0.714,10.0,3.012
261,1684384281712,29,-80,50,2,1.038,2.0,1.708,1.0,2.368,15.0,2.033,1.0,0.694,10.0,1.116
261,1684384298712,30,-20,20,2,0.908,8.0,1.827,1.0,0.993,12.0,2.41,1.0,1.305,10.0,1.844
262,1684386403098,1,-20,20,2,2.193,7.0,8.871,8.0,1.666,12.0,3.188,9.0,1.201,7.0,2.855
262,1684386419958,2,-50,50,2,0.816,3.0,2.392,9.0,1.505,15.0,3.766,9.0,0.928,9.0,2.248
262,1684386436776,3,-80,80,2,0.686,1.0,3.039,10.0,1.67,19.0,1.965,10.0,1.958,10.0,1.071
262,1684386456036,4,-80,50,2,1.305,0.0,2.831,10.0,1.395,16.0,4.117,9.0,2.434,9.0,1.708
262,1684386471345,5,50,-20,1,1.03,14.0,2.562,10.0,1.54,8.0,1.843,9.0,1.475,10.0,1.884
262,1684386485853,6,20,-80,1,1.023,12.0,2.413,10.0,1.257,1.0,1.866,9.0,1.139,10.0,1.837
262,1684386501687,7,-50,80,2,0.684,5.0,3.4,9.0,1.386,19.0,1.609,10.0,1.56,10.0,1.227
262,1684386519180,8,-20,80,2,1.051,8.0,3.063,10.0,1.834,19.0,2.172,10.0,0.856,10.0,2.428
262,1684386536289,9,20,-50,1,1.081,12.0,3.331,9.0,1.522,6.0,2.58,9.0,1.457,10.0,1.418
262,1684386560445,10,-20,50,2,1.742,8.0,2.436,10.0,1.097,15.0,5.621,10.0,5.25,10.0,2.187
262,1684386577246,11,-80,20,2,0.786,0.0,2.297,9.0,1.723,12.0,2.821,9.0,1.575,10.0,1.83
262,1684386593380,12,80,-50,1,0.8,20.0,2.672,9.0,1.918,4.0,1.938,9.0,1.18,10.0,1.044
262,1684386614284,13,50,-50,1,1.168,16.0,4.009,10.0,1.619,5.0,2.988,9.0,1.987,10.0,3.422
262,1684386639874,14,50,-80,1,1.057,15.0,12.577,10.0,1.334,1.0,2.107,10.0,1.37,10.0,1.672
262,1684386654665,15,20,-20,1,0.64,12.0,1.982,9.0,1.506,8.0,2.79,10.0,0.977,10.0,0.956
262,1684386668365,16,80,-20,1,0.83,19.0,1.653,9.0,1.929,8.0,1.458,9.0,1.053,10.0,1.493
262,1684386681856,17,80,-80,1,0.693,19.0,1.572,10.0,1.65,1.0,1.487,10.0,0.825,10.0,1.568
262,1684386698732,18,-50,20,2,1.161,4.0,2.945,10.0,1.239,12.0,1.826,10.0,1.168,10.0,2.969
262,1684386714358,19,-80,-20,2,0.934,1.0,1.877,10.0,0.854,8.0,2.176,9.0,1.92,10.0,1.91
262,1684386727507,20,-80,-50,2,0.767,1.0,1.819,10.0,0.762,6.0,2.597,10.0,0.977,9.0,1.7
262,1684386741523,21,-50,-20,2,0.611,6.0,2.496,10.0,0.827,8.0,1.466,10.0,1.486,10.0,1.189
262,1684386755815,22,-20,-80,1,0.775,9.0,2.236,10.0,1.296,0.0,2.233,10.0,0.77,10.0,1.443
262,1684386771148,23,-50,-80,1,0.924,6.0,2.713,10.0,1.311,2.0,1.54,10.0,1.051,9.0,1.413
262,1684386783138,24,-20,-50,2,0.35,8.0,1.644,10.0,0.757,5.0,1.497,10.0,1.117,0.0,2.406
262,1684386804575,25,80,50,1,0.639,20.0,7.863,10.0,1.049,14.0,2.705,9.0,1.216,10.0,1.619
262,1684386817591,26,20,50,2,0.597,12.0,1.671,10.0,0.991,16.0,1.323,10.0,0.801,10.0,2.11
262,1684386833508,27,20,80,2,0.774,12.0,3.88,9.0,1.155,18.0,1.42,10.0,0.796,10.0,1.992
262,1684386847825,28,50,20,1,0.913,15.0,1.559,10.0,1.598,12.0,1.469,9.0,1.409,10.0,1.465
262,1684386862516,29,80,20,1,0.843,19.0,2.054,10.0,1.358,12.0,1.679,9.0,1.381,10.0,1.407
262,1684386876791,30,50,80,2,0.623,15.0,2.178,10.0,2.049,20.0,1.509,10.0,1.071,10.0,1.227
82,1678835245626,1,-20,-50,1,6.867,,,,,,,,,,
82,1678835257683,2,-20,-80,2,8.129,,,,,,,,,,
82,1678835264746,3,-50,-80,2,2.079,,,,,,,,,,
82,1678835286686,4,-80,-20,1,4.347,14.0,2.741,5.0,1.537,14.0,3.023,6.0,2.365,6.0,2.37
82,1678835310160,5,-80,-50,2,0.877,13.0,6.96,6.0,5.604,13.0,2.103,7.0,1.593,6.0,1.584
82,1678835323182,6,-50,-20,2,1.044,14.0,1.594,6.0,1.209,12.0,1.292,6.0,1.122,7.0,2.049
82,1678835331238,7,50,20,1,3.625,,,,,,,,,,
82,1678835340740,8,80,20,2,4.848,,,,,,,,,,
82,1678835346483,9,80,50,2,0.986,,,,,,,,,,
82,1678835375875,10,50,80,2,1.588,14.0,9.291,6.0,2.135,18.0,5.48,5.0,1.548,8.0,3.563
82,1678835393154,11,20,50,2,1.243,12.0,1.94,2.0,2.435,15.0,2.839,5.0,1.103,6.0,2.1
82,1678835409649,12,20,80,2,0.801,12.0,1.621,5.0,1.552,14.0,1.99,4.0,2.086,7.0,2.427
82,1678835415830,13,50,-20,1,1.662,,,,,,,,,,
82,1678835421303,14,-80,80,2,1.108,,,,,,,,,,
82,1678835427602,15,-50,80,2,1.449,,,,,,,,,,
82,1678835433130,16,-80,20,2,1.563,,,,,,,,,,
82,1678835438964,17,20,-50,1,1.148,,,,,,,,,,
82,1678835445187,18,80,-20,1,2.007,,,,,,,,,,
82,1678835450903,19,20,-20,1,0.867,,,,,,,,,,
82,1678835455146,20,-80,50,2,0.894,,,,,,,,,,
82,1678835459945,21,-50,50,2,0.592,,,,,,,,,,
82,1678835479752,22,80,-80,1,1.297,16.0,3.57,7.0,1.801,14.0,4.674,5.0,1.411,6.0,1.501
82,1678835498692,23,-20,20,1,0.784,8.0,1.954,6.0,2.335,12.0,2.144,3.0,1.281,0.0,4.728
82,1678835512797,24,-20,80,1,0.746,5.0,2.93,6.0,1.234,6.0,1.755,4.0,2.108,4.0,1.21
82,1678835533147,25,-50,20,2,0.979,14.0,5.404,4.0,1.216,12.0,2.799,7.0,1.634,4.0,1.288
82,1678835551349,26,50,-80,1,2.086,16.0,2.935,5.0,1.428,13.0,1.367,4.0,3.732,5.0,1.504
82,1678835566018,27,50,-50,1,0.932,12.0,2.154,7.0,1.509,12.0,1.763,5.0,1.082,5.0,1.27
82,1678835582047,28,20,-80,1,1.144,12.0,2.246,5.0,1.023,7.0,2.738,7.0,2.164,7.0,1.148
82,1678835597965,29,-20,50,2,0.869,6.0,2.894,7.0,2.111,16.0,2.032,6.0,1.094,7.0,1.314
82,1678835619015,30,80,-50,1,1.26,13.0,3.09,5.0,1.301,8.0,2.998,7.0,5.254,5.0,1.504
84,1678835864241,1,-20,80,2,2.271,,,,,,,,,,
84,1678835873990,2,20,-80,1,4.28,,,,,,,,,,
84,1678835885340,3,-50,80,1,2.721,,,,,,,,,,
84,1678835894190,4,20,-20,1,2.235,,,,,,,,,,
84,1678835900924,5,-80,50,2,1.085,,,,,,,,,,
84,1678835909440,6,20,-50,1,2.88,,,,,,,,,,
84,1678835918074,7,-80,80,1,0.751,,,,,,,,,,
84,1678835925840,8,-20,50,2,0.77,,,,,,,,,,
84,1678835933607,9,50,-50,1,0.824,,,,,,,,,,
84,1678835961109,10,50,-80,1,1.01,12.0,3.09,5.0,3.66,10.0,3.479,4.0,1.216,4.0,5.121
84,1678836077174,11,-80,20,1,0.678,9.0,98.836,5.0,1.419,8.0,2.848,3.0,1.375,3.0,1.988
84,1678836107124,12,80,-50,2,0.884,11.0,2.649,3.0,2.01,13.0,2.112,2.0,1.611,6.0,1.769
84,1678836141908,13,-50,50,2,1.471,13.0,17.236,5.0,3.126,11.0,1.516,4.0,1.237,3.0,1.926
84,1678836181441,14,-50,20,1,2.075,13.0,2.349,3.0,1.457,14.0,21.252,3.0,1.697,3.0,2.643
84,1678836201275,15,-20,20,1,0.784,8.0,2.407,2.0,1.541,7.0,1.519,1.0,1.486,3.0,1.556
84,1678836225308,16,80,-20,1,0.695,7.0,1.933,3.0,1.697,7.0,4.75,4.0,5.103,3.0,1.565
84,1678836245093,17,80,-80,1,1.516,5.0,1.603,3.0,1.591,8.0,2.017,3.0,1.983,4.0,1.661
84,1678836262208,18,50,-20,1,0.886,11.0,1.865,4.0,1.508,6.0,1.631,4.0,0.969,7.0,2.248
84,1678836269775,19,50,80,1,0.724,,,,,,,,,,
84,1678836276225,20,20,80,2,1.706,,,,,,,,,,
84,1678836284558,21,50,20,1,1.135,,,,,,,,,,
84,1678836300275,22,20,50,2,1.156,9.0,1.716,3.0,1.347,12.0,1.409,2.0,1.247,6.0,1.48
84,1678836319492,23,80,50,2,0.659,9.0,2.629,2.0,1.371,12.0,2.602,4.0,1.527,6.0,1.913
84,1678836335210,24,80,20,2,1.696,5.0,2.794,3.0,1.428,5.0,1.945,2.0,1.258,3.0,1.448
84,1678836346525,25,-80,-20,2,1.778,,,,,,,,,,
84,1678836354358,26,-20,-50,2,1.64,,,,,,,,,,
84,1678836362792,27,-80,-50,2,0.951,,,,,,,,,,
84,1678836380858,28,-50,-20,1,1.492,8.0,1.565,4.0,1.794,6.0,1.591,3.0,1.405,2.0,1.546
84,1678836397275,29,-20,-80,1,0.652,7.0,2.33,5.0,1.275,8.0,1.109,5.0,1.563,2.0,1.403
84,1678836417292,30,-50,-80,1,1.4,10.0,2.938,4.0,1.229,7.0,2.242,2.0,1.117,6.0,3.387
85,1678835902804,1,50,80,2,4.831,,,,,,,,,,
85,1678835909789,2,80,20,1,1.513,,,,,,,,,,
85,1678835920585,3,50,20,1,2.757,,,,,,,,,,
85,1678835947480,4,80,50,1,1.65,18.0,3.533,5.0,2.48,16.0,3.42,5.0,1.509,8.0,5.965
85,1678835974451,5,20,80,2,1.305,12.0,3.99,3.0,2.389,18.0,3.808,5.0,2.392,6.0,6.378
85,1678835997437,6,20,50,2,1.213,12.0,3.264,3.0,2.813,16.0,3.423,6.0,2.737,7.0,2.868
85,1678836007205,7,-80,-50,2,2.528,,,,,,,,,,
85,1678836020623,8,-50,-20,2,6.065,,,,,,,,,,
85,1678836029274,9,-80,-20,2,0.942,,,,,,,,,,
85,1678836054076,10,-20,-50,1,2.592,8.0,5.422,4.0,2.546,6.0,2.63,4.0,1.545,5.0,2.432
85,1678836080479,11,-20,-80,1,1.178,8.0,2.607,4.0,2.83,2.0,3.639,6.0,4.693,5.0,3.104
85,1678836112482,12,-50,-80,1,1.313,6.0,3.978,6.0,3.206,2.0,8.099,8.0,3.013,7.0,2.755
85,1678836121583,13,80,-20,1,2.136,,,,,,,,,,
85,1678836131017,14,80,-50,1,2.113,,,,,,,,,,
85,1678836145268,15,-80,20,2,2.555,,,,,,,,,,
85,1678836153636,16,50,-50,1,2.008,,,,,,,,,,
85,1678836166154,17,-80,50,2,5.537,,,,,,,,,,
85,1678836176355,18,-20,20,2,3.095,,,,,,,,,,
85,1678836184540,19,-20,50,2,1.49,,,,,,,,,,
85,1678836191123,20,-80,80,2,1.83,,,,,,,,,,
85,1678836200274,21,20,-50,1,2.07,,,,,,,,,,
85,1678836222160,22,-50,20,2,1.456,7.0,4.89,6.0,1.311,12.0,2.238,5.0,1.649,6.0,2.912
85,1678836260563,23,50,-80,1,1.862,16.0,3.076,8.0,11.33,2.0,2.951,7.0,2.083,7.0,8.542
85,1678836287488,24,-50,50,2,5.619,8.0,3.45,7.0,2.503,16.0,3.795,7.0,2.272,7.0,4.1
85,1678836344640,25,80,-80,1,1.781,18.0,6.016,8.0,6.44,2.0,25.414,6.0,2.607,6.0,2.286
85,1678836376758,26,50,-20,1,1.41,16.0,4.906,4.0,8.91,7.0,3.422,3.0,3.19,7.0,2.958
85,1678836401977,27,-20,80,2,1.072,7.0,3.775,6.0,4.0,18.0,2.871,5.0,2.403,7.0,2.529
85,1678836426613,28,-50,80,2,0.98,7.0,2.95,1.0,3.187,18.0,3.865,8.0,2.614,9.0,2.494
85,1678836461583,29,20,-20,1,1.795,12.0,4.079,4.0,2.535,8.0,6.476,6.0,9.225,7.0,3.141
85,1678836497653,30,20,-80,1,2.002,12.0,2.246,7.0,14.99,2.0,3.214,6.0,2.84,6.0,2.839
86,1678835832916,1,50,80,2,1.625,,,,,,,,,,
86,1678835842067,2,80,20,1,3.614,,,,,,,,,,
86,1678835852452,3,50,20,1,1.75,,,,,,,,,,
86,1678835874476,4,20,80,2,1.184,12.0,2.638,4.0,1.311,18.0,3.628,4.0,2.137,9.0,3.238
86,1678835898055,5,80,50,1,1.231,18.0,3.379,3.0,2.53,15.0,4.921,2.0,1.659,9.0,2.105
86,1678835920013,6,20,50,2,1.784,12.0,3.185,3.0,1.33,15.0,2.503,3.0,3.091,10.0,2.087
86,1678835936509,7,-50,-80,1,8.387,,,,,,,,,,
86,1678835946394,8,-20,-80,1,1.455,,,,,,,,,,
86,1678835956077,9,-20,-50,1,2.05,,,,,,,,,,
86,1678835978398,10,-80,-20,2,1.428,3.0,3.829,3.0,1.425,8.0,2.346,3.0,1.178,10.0,3.73
86,1678836000447,11,-50,-20,2,0.997,5.0,3.069,2.0,2.145,8.0,1.856,3.0,1.119,9.0,2.784
86,1678836024700,12,-80,-50,2,1.793,2.0,2.518,3.0,2.485,5.0,3.068,2.0,2.311,9.0,2.048
86,1678836034618,13,20,-80,1,2.141,,,,,,,,,,
86,1678836043976,14,-50,20,2,2.309,,,,,,,,,,
86,1678836055144,15,50,-20,1,1.867,,,,,,,,,,
86,1678836063970,16,-50,80,2,1.657,,,,,,,,,,
86,1678836073305,17,80,-20,1,1.936,,,,,,,,,,
86,1678836082708,18,50,-80,1,1.625,,,,,,,,,,
86,1678836093162,19,20,-20,1,2.774,,,,,,,,,,
86,1678836101007,20,50,-50,1,2.04,,,,,,,,,,
86,1678836110164,21,80,-80,1,1.283,,,,,,,,,,
86,1678836131835,22,20,-50,1,1.679,12.0,2.346,3.0,2.563,5.0,3.123,3.0,2.604,10.0,1.445
86,1678836155147,23,-50,50,2,1.028,5.0,2.436,3.0,3.247,15.0,2.956,3.0,1.348,10.0,2.282
86,1678836171223,24,-20,50,2,1.098,8.0,2.281,3.0,1.773,14.0,2.484,3.0,1.314,10.0,1.62
86,1678836194936,25,-20,20,2,1.117,8.0,2.493,3.0,2.531,12.0,2.323,4.0,2.24,10.0,1.284
86,1678836216534,26,-80,50,2,1.397,3.0,2.365,2.0,2.501,14.0,2.547,3.0,1.536,10.0,3.043
86,1678836238473,27,80,-50,1,1.628,18.0,2.356,3.0,1.833,5.0,3.811,3.0,1.697,10.0,1.515
86,1678836264043,28,-20,80,2,1.119,8.0,2.78,3.0,4.879,17.0,2.156,3.0,4.144,10.0,1.593
86,1678836288061,29,-80,20,2,0.819,3.0,2.47,3.0,2.128,12.0,2.412,3.0,2.269,10.0,5.627
86,1678836306398,30,-80,80,2,1.135,2.0,1.973,2.0,1.799,18.0,2.38,3.0,1.073,10.0,1.693
87,1678836314055,1,-50,-20,2,2.22,,,,,,,,,,
87,1678836324085,2,-80,-50,2,1.918,,,,,,,,,,
87,1678836338464,3,-80,-20,2,1.624,,,,,,,,,,
87,1678836366119,4,-50,-80,1,1.566,5.0,4.517,8.0,1.668,0.0,2.317,9.0,2.336,6.0,3.9
87,1678836386295,5,-20,-80,1,0.751,8.0,3.029,8.0,1.169,1.0,2.278,8.0,1.577,8.0,2.264
87,1678836408670,6,-20,-50,1,0.538,9.0,2.319,7.0,1.227,6.0,2.294,8.0,1.139,7.0,5.725
87,1678836421554,7,-20,80,2,2.166,,,,,,,,,,
87,1678836439462,8,-50,80,2,1.024,,,,,,,,,,
87,1678836452387,9,20,-80,1,2.012,,,,,,,,,,
87,1678836464691,10,-20,50,2,1.361,,,,,,,,,,
87,1678836476976,11,50,-50,1,0.996,,,,,,,,,,
87,1678836491614,12,50,-80,1,1.168,,,,,,,,,,
87,1678836504252,13,-50,20,2,1.366,,,,,,,,,,
87,1678836515493,14,-20,20,2,1.165,,,,,,,,,,
87,1678836529316,15,80,-80,1,1.546,,,,,,,,,,
87,1678836553455,16,50,-20,1,0.991,15.0,2.893,7.0,1.016,8.0,2.256,8.0,1.804,9.0,4.68
87,1678836577312,17,20,-50,1,1.093,13.0,3.2,8.0,0.869,5.0,2.266,8.0,1.46,8.0,2.481
87,1678836599064,18,80,-50,1,0.85,20.0,2.161,10.0,1.65,4.0,2.114,7.0,1.048,8.0,2.6
87,1678836627440,19,-50,50,2,0.964,6.0,4.77,8.0,1.274,14.0,2.728,8.0,0.674,7.0,2.653
87,1678836646360,20,-80,50,2,0.909,1.0,3.14,9.0,0.721,14.0,2.241,9.0,1.196,7.0,3.042
87,1678836667317,21,-80,20,2,1.032,2.0,2.537,9.0,0.885,12.0,1.658,9.0,1.269,8.0,2.115
87,1678836688831,22,80,-20,1,1.986,19.0,2.17,9.0,0.911,9.0,2.501,8.0,1.558,8.0,1.81
87,1678836710972,23,-80,80,2,0.738,2.0,2.106,9.0,1.397,19.0,2.221,9.0,1.249,8.0,1.793
87,1678836727386,24,20,-20,1,1.07,13.0,2.374,8.0,1.309,8.0,1.579,7.0,1.406,7.0,2.107
87,1678836741008,25,20,80,2,1.498,,,,,,,,,,
87,1678836751865,26,20,50,2,1.367,,,,,,,,,,
87,1678836765569,27,80,50,1,1.391,,,,,,,,,,
87,1678836785570,28,50,20,1,1.084,13.0,2.115,8.0,1.028,11.0,1.553,9.0,1.275,7.0,2.558
87,1678836805903,29,50,80,2,0.605,15.0,2.796,9.0,1.972,19.0,2.019,10.0,0.901,9.0,1.361
87,1678836825708,30,80,20,1,0.898,19.0,1.769,9.0,1.253,12.0,1.995,9.0,1.243,9.0,1.331
88,1678837384459,1,80,20,1,2.228,,,,,,,,,,
88,1678837398780,2,80,50,1,1.944,,,,,,,,,,
88,1678837421657,3,50,20,1,2.186,,,,,,,,,,
88,1678837452548,4,50,80,2,1.358,14.0,3.679,8.0,1.35,17.0,3.813,8.0,1.047,8.0,2.13
88,1678837479281,5,20,50,2,1.334,14.0,2.77,7.0,1.351,15.0,3.422,8.0,2.318,7.0,1.16
88,1678837504169,6,20,80,2,0.679,14.0,3.862,7.0,1.813,18.0,1.902,9.0,1.0,9.0,1.803
88,1678837523032,7,-50,20,1,1.298,,,,,,,,,,
88,1678837540375,8,50,-20,1,2.863,,,,,,,,,,
88,1678837562319,9,50,-50,1,2.539,,,,,,,,,,
88,1678837580068,10,-80,80,2,1.862,,,,,,,,,,
88,1678837600331,11,-20,20,2,1.619,,,,,,,,,,
88,1678837622981,12,80,-20,1,1.387,,,,,,,,,,
88,1678837641948,13,-80,50,2,1.508,,,,,,,,,,
88,1678837659734,14,80,-50,1,1.935,,,,,,,,,,
88,1678837684934,15,20,-80,1,2.613,,,,,,,,,,
88,1678837721901,16,-50,80,2,3.566,14.0,2.732,8.0,1.52,18.0,3.526,9.0,1.742,9.0,7.679
88,1678837758221,17,-50,50,2,0.523,17.0,5.536,8.0,2.824,16.0,1.791,9.0,1.836,8.0,2.498
88,1678837787593,18,-20,50,2,1.094,12.0,2.415,8.0,1.312,17.0,1.805,8.0,1.127,8.0,2.185
88,1678837820903,19,80,-80,1,0.863,19.0,3.224,9.0,1.895,4.0,3.103,9.0,1.46,9.0,1.966
88,1678837841919,20,20,-50,2,1.285,13.0,2.463,8.0,0.967,15.0,1.965,8.0,0.919,9.0,2.124
88,1678837873881,21,-20,80,2,0.67,8.0,4.2,7.0,2.209,18.0,2.647,9.0,1.504,9.0,2.422
88,1678837900703,22,20,-20,1,0.718,14.0,2.491,8.0,0.992,8.0,2.884,8.0,1.335,8.0,1.802
88,1678837932834,23,-80,20,2,0.694,3.0,3.901,9.0,1.983,15.0,1.927,7.0,1.351,8.0,1.429
88,1678837955554,24,50,-80,1,0.806,14.0,2.808,8.0,4.632,2.0,2.07,8.0,1.64,8.0,1.426
88,1678837978078,25,-20,-80,1,1.969,,,,,,,,,,
88,1678837995202,26,-80,-50,2,1.66,,,,,,,,,,
88,1678838016208,27,-50,-20,1,1.622,,,,,,,,,,
88,1678838046277,28,-50,-80,1,0.933,14.0,3.837,8.0,1.99,3.0,2.748,7.0,1.599,8.0,2.257
88,1678838076817,29,-20,-50,2,0.694,8.0,5.864,7.0,1.062,15.0,1.732,7.0,1.286,7.0,1.721
88,1678838105193,30,-80,-20,2,0.678,2.0,2.946,8.0,1.509,8.0,1.967,7.0,0.916,7.0,2.681
89,1678836062613,1,80,-50,1,1.457,,,,,,,,,,
89,1678836069296,2,-20,50,2,1.275,,,,,,,,,,
89,1678836078729,3,80,-80,1,1.134,,,,,,,,,,
89,1678836087695,4,-80,50,2,2.346,,,,,,,,,,
89,1678836095261,5,50,-50,1,1.997,,,,,,,,,,
89,1678836102149,6,20,-50,1,1.262,,,,,,,,,,
89,1678836111265,7,-80,20,2,1.344,,,,,,,,,,
89,1678836119898,8,-20,80,2,1.317,,,,,,,,,,
89,1678836127948,9,-20,20,2,1.152,,,,,,,,,,
89,1678836157296,10,50,-20,1,1.089,15.0,6.425,8.0,1.226,8.0,2.045,7.0,6.775,10.0,2.73
89,1678836178083,11,80,-20,1,0.658,18.0,3.168,9.0,1.633,6.0,1.676,9.0,2.23,10.0,3.176
89,1678836207115,12,20,-80,1,0.666,11.0,2.588,6.0,4.182,1.0,2.113,9.0,1.559,5.0,7.239
89,1678836234137,13,-50,50,2,0.644,4.0,9.584,7.0,1.853,15.0,3.424,9.0,1.649,9.0,2.058
89,1678836252453,14,-50,20,2,0.636,5.0,2.873,9.0,1.805,11.0,1.684,7.0,2.257,9.0,1.599
89,1678836275518,15,20,-20,1,0.705,11.0,2.163,9.0,1.854,8.0,1.909,6.0,4.051,7.0,2.514
89,1678836360406,16,-50,80,2,0.792,4.0,3.444,8.0,65.023,19.0,2.741,10.0,3.251,10.0,2.39
89,1678836380804,17,50,-80,1,1.295,16.0,2.416,9.0,1.846,0.0,2.073,10.0,1.906,8.0,2.15
89,1678836399037,18,-80,80,2,1.202,2.0,1.988,9.0,2.44,19.0,1.582,9.0,1.416,9.0,1.752
89,1678836412890,19,-20,-50,1,6.174,,,,,,,,,,
89,1678836419707,20,-80,-50,2,2.118,,,,,,,,,,
89,1678836428356,21,-80,-20,2,1.49,,,,,,,,,,
89,1678836445705,22,-50,-80,1,1.274,5.0,2.353,9.0,1.415,0.0,1.735,10.0,0.998,9.0,2.209
89,1678836463521,23,-50,-20,2,0.812,4.0,1.67,8.0,1.291,8.0,1.84,8.0,1.242,7.0,1.898
89,1678836479174,24,-20,-80,1,0.823,7.0,2.817,8.0,1.599,2.0,1.517,3.0,1.641,9.0,2.573
89,1678836489673,25,20,50,2,1.31,,,,,,,,,,
89,1678836497239,26,80,50,1,1.382,,,,,,,,,,
89,1678836506189,27,80,20,1,1.518,,,,,,,,,,
89,1678836523688,28,50,80,2,0.635,16.0,3.007,9.0,1.687,20.0,1.77,9.0,1.245,10.0,1.626
89,1678836539908,29,20,80,2,0.616,11.0,2.074,6.0,1.231,20.0,1.519,10.0,1.185,10.0,1.493
89,1678836579323,30,50,20,1,0.913,15.0,1.829,9.0,2.003,11.0,1.564,7.0,1.049,7.0,24.282
90,1678836236544,1,50,80,2,2.47,,,,,,,,,,
90,1678836244652,2,50,20,1,2.649,,,,,,,,,,
90,1678836254326,3,80,20,1,1.667,,,,,,,,,,
90,1678836282998,4,20,50,2,1.469,12.0,4.561,5.0,1.518,15.0,5.951,5.0,2.074,7.0,4.982
90,1678836301530,5,20,80,2,1.184,12.0,2.977,7.0,1.352,18.0,3.443,5.0,1.493,7.0,1.504
90,1678836326839,6,80,50,2,1.039,18.0,3.489,5.0,1.965,16.0,4.043,6.0,3.872,3.0,4.281
90,1678836335597,7,50,-20,1,1.603,,,,,,,,,,
90,1678836344222,8,-80,80,2,1.709,,,,,,,,,,
90,1678836353880,9,-20,20,2,1.735,,,,,,,,,,
90,1678836362188,10,50,-50,1,1.167,,,,,,,,,,
90,1678836370447,11,50,-80,1,0.885,,,,,,,,,,
90,1678836379638,12,-20,80,2,0.947,,,,,,,,,,
90,1678836387630,13,-50,20,2,0.98,,,,,,,,,,
90,1678836396722,14,80,-50,1,2.414,,,,,,,,,,
90,1678836407161,15,20,-80,1,1.036,,,,,,,,,,
90,1678836427774,16,-80,20,2,0.911,2.0,4.035,5.0,1.493,12.0,2.795,5.0,1.973,5.0,1.999
90,1678836453134,17,-50,80,2,1.815,5.0,4.844,5.0,1.516,16.0,6.133,5.0,1.369,6.0,2.036
90,1678836476411,18,-80,50,2,0.874,0.0,3.28,6.0,2.522,16.0,3.416,5.0,1.455,6.0,3.921
90,1678836502618,19,20,-50,1,1.461,13.0,3.919,5.0,2.445,3.0,6.448,6.0,1.455,6.0,1.77
90,1678836521900,20,20,-20,1,1.107,11.0,4.367,5.0,1.123,9.0,3.057,5.0,2.09,7.0,1.842
90,1678836544927,21,-20,50,2,0.558,8.0,4.74,5.0,1.471,18.0,3.448,6.0,1.345,5.0,2.107
90,1678836572567,22,-50,50,2,1.389,8.0,8.554,5.0,2.333,18.0,3.18,7.0,1.872,5.0,2.307
90,1678836593880,23,80,-20,1,1.267,20.0,2.694,6.0,1.485,8.0,2.814,6.0,2.057,7.0,2.47
90,1678836615576,24,80,-80,1,1.131,20.0,5.927,5.0,1.792,1.0,3.015,6.0,2.641,8.0,2.109
90,1678836631444,25,-80,-20,2,6.959,,,,,,,,,,
90,1678836644664,26,-20,-50,1,6.802,,,,,,,,,,
90,1678836653605,27,-50,-80,1,1.32,,,,,,,,,,
90,1678836673919,28,-20,-80,1,1.415,6.0,2.589,4.0,2.012,1.0,2.327,5.0,1.658,8.0,2.321
90,1678836693484,29,-80,-50,2,1.249,0.0,3.557,6.0,1.462,6.0,2.57,5.0,1.265,6.0,1.691
90,1678836712598,30,-50,-20,2,1.338,6.0,2.559,5.0,2.16,8.0,2.044,5.0,1.438,6.0,1.486
91,1678836748798,1,50,80,2,2.143,,,,,,,,,,
91,1678836756398,2,20,50,1,2.129,,,,,,,,,,
91,1678836766697,3,20,80,2,1.71,,,,,,,,,,
91,1678836793582,4,80,50,1,2.326,16.0,4.605,7.0,2.319,15.0,4.066,6.0,1.601,8.0,4.253
91,1678836819130,5,80,20,2,2.506,16.0,5.102,7.0,2.553,12.0,2.987,9.0,2.47,6.0,3.253
91,1678836844679,6,50,20,2,1.426,15.0,3.219,5.0,2.27,13.0,4.627,6.0,2.576,5.0,4.761
91,1678836856814,7,-20,-50,2,4.988,,,,,,,,,,
91,1678836865413,8,-80,-50,2,2.131,,,,,,,,,,
91,1678836875012,9,-20,-80,1,2.083,,,,,,,,,,
91,1678836900645,10,-50,-20,1,1.746,8.0,3.767,5.0,2.571,6.0,3.515,5.0,2.413,5.0,2.995
91,1678836927078,11,-50,-80,2,1.512,10.0,3.083,6.0,2.543,6.0,5.626,5.0,2.303,5.0,2.835
91,1678836955876,12,-80,-20,2,1.475,6.0,4.637,6.0,2.506,8.0,3.011,6.0,4.203,5.0,3.208
91,1678836964493,13,-50,50,2,1.668,,,,,,,,,,
91,1678836972618,14,80,-50,1,1.402,,,,,,,,,,
91,1678836981967,15,-80,50,2,1.513,,,,,,,,,,
91,1678836989934,16,-20,20,2,1.575,,,,,,,,,,
91,1678836999100,17,80,-80,1,1.777,,,,,,,,,,
91,1678837008066,18,50,-20,1,2.084,,,,,,,,,,
91,1678837016799,19,-20,80,2,1.356,,,,,,,,,,
91,1678837023049,20,20,-50,1,1.488,,,,,,,,,,
91,1678837031415,21,-80,20,2,1.48,,,,,,,,,,
91,1678837058929,22,20,-20,1,1.533,12.0,4.4,5.0,6.08,8.0,3.368,5.0,2.282,5.0,2.467
91,1678837084328,23,50,-50,1,1.976,15.0,3.824,8.0,2.285,8.0,2.689,4.0,2.663,5.0,3.083
91,1678837105916,24,50,-80,1,1.161,16.0,3.056,6.0,3.662,4.0,3.538,5.0,2.238,5.0,2.777
91,1678837134864,25,-20,50,2,1.416,8.0,4.522,5.0,2.114,10.0,6.651,6.0,2.522,6.0,2.731
91,1678837160075,26,-50,20,2,1.128,8.0,2.724,5.0,2.396,13.0,3.556,5.0,4.149,7.0,3.139
91,1678837185973,27,-80,80,2,1.307,6.0,4.09,4.0,2.361,18.0,3.608,7.0,3.17,7.0,2.83
91,1678837213811,28,-50,80,2,1.36,8.0,2.863,6.0,3.242,17.0,6.831,8.0,3.399,5.0,2.578
91,1678837242310,29,20,-80,1,1.106,12.0,3.166,6.0,2.644,5.0,6.873,4.0,2.504,5.0,4.496
91,1678837270708,30,80,-20,1,2.121,16.0,6.073,7.0,3.338,8.0,3.451,4.0,2.442,5.0,3.126
92,1678836725728,1,50,-50,2,67.462,,,,,,,,,,
92,1678836732595,2,-50,20,1,0.802,,,,,,,,,,
92,1678836746529,3,50,-20,1,5.339,,,,,,,,,,
92,1678836755446,4,20,-20,1,1.805,,,,,,,,,,
92,1678836762746,5,20,-80,1,1.668,,,,,,,,,,
92,1678836770147,6,-20,80,2,1.748,,,,,,,,,,
92,1678836779430,7,-50,80,2,2.164,,,,,,,,,,
92,1678836787280,8,-80,80,2,1.116,,,,,,,,,,
92,1678836798214,9,-80,50,2,1.448,,,,,,,,,,
92,1678836831415,10,-20,20,2,4.209,8.0,6.039,4.0,1.259,12.0,4.912,4.0,1.196,4.0,5.389
92,1678836858299,11,80,-50,1,1.725,17.0,3.457,5.0,1.344,3.0,7.55,3.0,1.344,3.0,2.011
92,1678836881650,12,20,-50,1,1.399,11.0,3.192,4.0,1.392,3.0,2.616,4.0,1.855,2.0,2.235
92,1678836902467,13,-80,20,2,2.423,1.0,2.775,2.0,1.64,10.0,2.294,4.0,1.417,3.0,2.281
92,1678836931101,14,-50,50,2,4.928,5.0,4.343,3.0,1.16,14.0,6.333,4.0,1.674,1.0,2.516
92,1678837027071,15,80,-20,1,1.125,17.0,72.511,2.0,2.183,8.0,2.002,3.0,1.713,3.0,1.309
92,1678837102439,16,80,-80,1,1.169,16.0,1.536,3.0,1.193,2.0,2.068,2.0,1.079,3.0,59.857
92,1678837121973,17,-20,50,2,2.656,8.0,2.456,3.0,0.843,5.0,1.8,3.0,1.614,5.0,1.421
92,1678837139557,18,50,-80,1,1.524,13.0,1.359,4.0,1.12,1.0,2.836,5.0,1.572,3.0,1.283
92,1678837148625,19,20,50,1,1.197,,,,,,,,,,
92,1678837154941,20,80,20,1,1.58,,,,,,,,,,
92,1678837168141,21,80,50,2,5.839,,,,,,,,,,
92,1678837191025,22,50,80,1,1.531,14.0,4.226,5.0,1.177,17.0,3.145,4.0,1.471,4.0,1.561
92,1678837213176,23,20,80,2,2.099,12.0,2.859,5.0,1.488,15.0,4.211,4.0,1.479,3.0,1.389
92,1678837229393,24,50,20,2,0.86,14.0,3.342,4.0,1.341,14.0,2.219,3.0,1.564,3.0,1.76
92,1678837240428,25,-80,-50,1,2.767,,,,,,,,,,
92,1678837248778,26,-50,-20,2,2.091,,,,,,,,,,
92,1678837257528,27,-80,-20,2,1.238,,,,,,,,,,
92,1678837276828,28,-20,-50,1,2.092,9.0,1.96,5.0,1.486,7.0,1.755,3.0,1.253,3.0,2.729
92,1678837301796,29,-50,-80,1,1.887,7.0,2.121,3.0,1.0,2.0,1.937,3.0,1.599,4.0,1.764
92,1678837333680,30,-20,-80,1,1.46,7.0,1.891,4.0,1.236,2.0,2.62,3.0,1.068,4.0,1.319
93,1678835771844,1,50,-80,1,2.362,,,,,,,,,,
93,1678835779177,2,-20,50,2,1.918,,,,,,,,,,
93,1678835788860,3,-50,50,2,1.359,,,,,,,,,,
93,1678835798860,4,-50,20,2,2.998,,,,,,,,,,
93,1678835805810,5,80,-20,1,1.382,,,,,,,,,,
93,1678835812477,6,80,-80,1,1.093,,,,,,,,,,
93,1678835821010,7,20,-80,1,1.164,,,,,,,,,,
93,1678835829627,8,-20,20,2,1.554,,,,,,,,,,
93,1678835837660,9,-50,80,2,1.128,,,,,,,,,,
93,1678835861010,10,-20,80,2,3.77,16.0,3.28,5.0,1.165,19.0,2.76,6.0,1.198,8.0,3.091
93,1678835883911,11,50,-20,1,1.339,14.0,4.582,6.0,1.993,3.0,2.248,8.0,2.504,10.0,1.959
93,1678835907294,12,-80,80,2,1.546,2.0,2.92,9.0,2.117,18.0,2.488,9.0,2.557,10.0,1.593
93,1678835938945,13,-80,50,2,0.596,2.0,2.651,6.0,1.619,14.0,2.142,9.0,1.123,9.0,15.338
93,1678835959578,14,20,-20,1,1.291,13.0,2.976,7.0,1.771,0.0,3.277,3.0,2.116,8.0,1.493
93,1678835980994,15,50,-50,1,0.924,14.0,3.036,6.0,1.737,4.0,2.203,8.0,1.902,9.0,1.334
93,1678836001944,16,-80,20,2,0.652,2.0,3.111,5.0,2.322,15.0,3.161,6.0,1.371,6.0,3.074
93,1678836024328,17,20,-50,1,0.992,16.0,5.043,3.0,2.343,4.0,2.354,3.0,1.899,8.0,1.519
93,1678836041128,18,80,-50,1,1.001,18.0,2.284,9.0,1.323,4.0,1.86,7.0,0.975,10.0,1.446
93,1678836051061,19,20,50,1,2.415,,,,,,,,,,
93,1678836057344,20,80,20,1,1.587,,,,,,,,,,
93,1678836065377,21,80,50,1,0.859,,,,,,,,,,
93,1678836087161,22,50,20,1,0.741,16.0,3.593,5.0,1.669,13.0,3.268,5.0,1.047,8.0,4.122
93,1678836105595,23,50,80,2,0.775,18.0,2.692,6.0,1.575,20.0,1.923,10.0,1.393,10.0,1.23
93,1678836122478,24,20,80,2,0.994,13.0,2.13,6.0,1.857,18.0,2.266,9.0,2.142,9.0,2.498
93,1678836133012,25,-80,-50,1,2.801,,,,,,,,,,
93,1678836140961,26,-80,-20,1,1.737,,,,,,,,,,
93,1678836152495,27,-20,-50,1,3.424,,,,,,,,,,
93,1678836186412,28,-20,-80,2,0.637,3.0,3.651,7.0,1.93,6.0,4.891,5.0,2.622,7.0,2.256
93,1678836204561,29,-50,-80,2,0.655,4.0,2.418,6.0,2.137,8.0,1.675,9.0,1.665,8.0,1.36
93,1678836224845,30,-50,-20,1,0.68,2.0,2.189,3.0,2.817,0.0,2.493,8.0,1.244,2.0,2.635
94,1678836276750,1,-20,-80,2,3.234,,,,,,,,,,
94,1678836284523,2,-50,-20,2,2.147,,,,,,,,,,
94,1678836295715,3,-50,-80,1,2.433,,,,,,,,,,
94,1678836324606,4,-80,-50,2,1.773,2.0,4.144,3.0,2.888,5.0,5.872,4.0,1.711,10.0,4.278
94,1678836344872,5,-20,-50,1,1.097,8.0,2.66,4.0,1.259,5.0,3.506,5.0,1.841,10.0,3.175
94,1678836363038,6,-80,-20,2,1.376,1.0,2.953,5.0,1.316,8.0,2.573,5.0,1.522,10.0,1.726
94,1678836371511,7,80,-20,1,1.338,,,,,,,,,,
94,1678836380902,8,20,-50,1,2.192,,,,,,,,,,
94,1678836389326,9,-20,20,2,1.272,,,,,,,,,,
94,1678836397800,10,-20,50,2,1.501,,,,,,,,,,
94,1678836406890,11,50,-50,1,1.307,,,,,,,,,,
94,1678836416831,12,-80,50,2,1.601,,,,,,,,,,
94,1678836424922,13,20,-80,1,1.118,,,,,,,,,,
94,1678836433228,14,-80,80,2,1.599,,,,,,,,,,
94,1678836443320,15,-50,80,2,1.243,,,,,,,,,,
94,1678836463003,16,-80,20,2,1.011,2.0,3.641,5.0,1.874,12.0,2.48,5.0,1.355,10.0,2.04
94,1678836489792,17,80,-50,1,1.748,19.0,4.634,7.0,2.011,4.0,5.373,4.0,3.301,10.0,1.945
94,1678836509158,18,50,-20,1,1.345,15.0,2.757,5.0,1.452,8.0,1.957,5.0,1.219,10.0,2.725
94,1678836528757,19,-50,20,2,1.081,5.0,3.078,5.0,1.275,13.0,2.054,6.0,1.966,10.0,2.212
94,1678836550792,20,50,-80,1,1.641,16.0,2.676,6.0,2.055,1.0,2.63,8.0,4.372,10.0,2.868
94,1678836574978,21,-50,50,2,1.238,4.0,5.814,6.0,1.427,16.0,3.807,6.0,1.48,10.0,2.534
94,1678836598898,22,20,-20,1,0.963,12.0,2.917,6.0,4.779,8.0,4.261,6.0,1.856,10.0,1.734
94,1678836618231,23,-20,80,2,1.251,8.0,1.889,5.0,1.635,19.0,2.747,7.0,1.343,10.0,1.977
94,1678836634711,24,80,-80,1,1.076,19.0,2.175,7.0,1.382,1.0,2.793,7.0,1.507,10.0,2.189
94,1678836643951,25,80,50,1,1.489,,,,,,,,,,
94,1678836651658,26,20,50,2,1.425,,,,,,,,,,
94,1678836660365,27,80,20,1,1.274,,,,,,,,,,
94,1678836684335,28,20,80,2,1.705,8.0,2.336,0.0,5.03,18.0,3.567,7.0,1.462,10.0,2.313
94,1678836708338,29,50,80,2,1.221,15.0,2.06,5.0,2.407,19.0,2.711,7.0,4.68,9.0,3.198
94,1678836728571,30,50,20,1,1.722,14.0,2.529,6.0,3.348,12.0,2.256,6.0,1.099,9.0,1.597
95,1678836309715,1,20,-80,1,2.036,,,,,,,,,,
95,1678836319069,2,-80,80,2,1.318,,,,,,,,,,
95,1678836334037,3,50,-20,1,1.945,,,,,,,,,,
95,1678836345345,4,20,-50,1,1.028,,,,,,,,,,
95,1678836355524,5,80,-20,1,1.789,,,,,,,,,,
95,1678836365071,6,20,-20,1,1.208,,,,,,,,,,
95,1678836378453,7,-50,50,2,1.392,,,,,,,,,,
95,1678836388877,8,-80,50,2,1.343,,,,,,,,,,
95,1678836400980,9,80,-50,1,1.083,,,,,,,,,,
95,1678836432878,10,-80,20,2,1.719,0.0,4.309,9.0,3.231,10.0,4.967,10.0,1.496,9.0,6.243
95,1678836462942,11,80,-80,1,0.975,18.0,5.62,4.0,2.399,0.0,2.646,9.0,1.144,8.0,3.962
95,1678836488273,12,-50,80,2,0.735,3.0,3.708,9.0,1.28,18.0,2.327,4.0,1.967,8.0,1.413
95,1678836508690,13,-50,20,2,0.815,3.0,2.288,9.0,1.207,10.0,1.855,10.0,1.367,8.0,1.116
95,1678836529892,14,-20,20,2,0.847,6.0,3.086,9.0,1.064,10.0,1.534,10.0,1.071,8.0,1.513
95,1678836555205,15,-20,80,2,1.055,6.0,2.439,9.0,2.03,18.0,2.172,5.0,3.143,8.0,1.122
95,1678836576692,16,50,-80,1,1.095,15.0,3.164,7.0,1.87,0.0,1.807,10.0,1.247,8.0,2.068
95,1678836599874,17,50,-50,1,1.461,15.0,2.078,9.0,1.495,3.0,2.741,9.0,1.952,8.0,2.211
95,1678836621315,18,-20,50,2,1.007,6.0,2.071,9.0,1.429,15.0,1.919,6.0,2.024,9.0,1.515
95,1678836633675,19,20,80,2,2.465,,,,,,,,,,
95,1678836642594,20,20,50,2,1.901,,,,,,,,,,
95,1678836654793,21,50,80,2,1.241,,,,,,,,,,
95,1678836678202,22,80,50,1,0.943,18.0,3.47,6.0,1.599,15.0,2.262,8.0,1.927,1.0,2.715
95,1678836702985,23,50,20,1,0.694,15.0,2.4,7.0,3.334,10.0,1.703,10.0,1.006,8.0,2.755
95,1678836720799,24,80,20,1,1.038,18.0,1.931,5.0,2.143,10.0,1.39,10.0,1.151,2.0,3.107
95,1678836735702,25,-80,-50,2,2.415,,,,,,,,,,
95,1678836747759,26,-50,-20,2,2.88,,,,,,,,,,
95,1678836760587,27,-20,-80,1,1.339,,,,,,,,,,
95,1678836782737,28,-80,-20,2,0.775,0.0,2.261,10.0,1.064,6.0,2.223,9.0,1.447,5.0,3.947
95,1678836805219,29,-50,-80,1,0.983,3.0,3.396,9.0,1.056,0.0,1.975,10.0,1.199,8.0,1.883
95,1678836826346,30,-20,-50,1,0.718,6.0,2.177,10.0,1.503,3.0,2.503,10.0,1.159,8.0,1.635
96,1678836496343,1,20,50,1,3.128,,,,,,,,,,
96,1678836503793,2,80,50,1,1.487,,,,,,,,,,
96,1678836519277,3,20,80,1,1.67,,,,,,,,,,
96,1678836549643,4,80,20,1,1.859,19.0,9.931,8.0,2.43,6.0,4.269,2.0,2.011,4.0,2.191
96,1678836583710,5,50,80,2,0.695,12.0,15.705,5.0,1.689,16.0,2.645,7.0,2.531,6.0,4.043
96,1678836617494,6,50,20,2,7.738,12.0,2.967,5.0,3.344,12.0,3.924,5.0,5.592,2.0,3.474
96,1678836629310,7,-20,-80,1,4.421,,,,,,,,,,
96,1678836646593,8,-50,-80,1,7.901,,,,,,,,,,
96,1678836656444,9,-20,-50,2,1.588,,,,,,,,,,
96,1678836684828,10,-80,-50,2,0.845,8.0,4.298,7.0,2.964,14.0,3.595,7.0,3.229,5.0,5.16
96,1678836713195,11,-50,-20,1,1.609,14.0,3.885,5.0,1.823,10.0,4.139,6.0,3.655,5.0,2.423
96,1678836738462,12,-80,-20,2,1.558,14.0,2.654,5.0,1.989,13.0,1.755,7.0,2.281,7.0,4.998
96,1678836747076,13,-20,20,1,1.288,,,,,,,,,,
96,1678836754942,14,80,-80,1,1.12,,,,,,,,,,
96,1678836765194,15,50,-80,1,1.955,,,,,,,,,,
96,1678836773743,16,20,-50,2,1.286,,,,,,,,,,
96,1678836784795,17,-20,80,2,0.903,,,,,,,,,,
96,1678836794592,18,50,-20,1,2.72,,,,,,,,,,
96,1678836804677,19,-80,20,2,1.804,,,,,,,,,,
96,1678836810762,20,-50,80,2,1.071,,,,,,,,,,
96,1678836822528,21,50,-50,2,0.969,,,,,,,,,,
96,1678836848545,22,80,-50,1,1.512,17.0,2.915,7.0,3.226,14.0,5.145,6.0,2.658,7.0,2.694
96,1678836877578,23,-80,80,2,0.89,8.0,9.887,6.0,1.556,16.0,2.27,7.0,2.361,7.0,3.238
96,1678836900811,24,80,-20,1,2.36,18.0,4.802,10.0,1.53,10.0,4.36,5.0,2.161,6.0,2.81
96,1678836932959,25,20,-20,1,1.39,10.0,3.835,4.0,3.178,12.0,3.34,2.0,1.571,6.0,8.396
96,1678836959912,26,-80,50,1,2.295,12.0,3.089,2.0,1.876,8.0,7.478,3.0,1.677,2.0,3.304
96,1678836986662,27,-20,50,2,1.942,8.0,4.703,5.0,2.587,6.0,3.407,5.0,2.038,7.0,3.261
96,1678837012159,28,-50,50,2,2.008,6.0,4.169,6.0,2.296,15.0,3.126,7.0,1.405,7.0,2.77
96,1678837035262,29,20,-80,1,1.633,12.0,3.068,6.0,2.372,8.0,2.989,6.0,1.739,6.0,3.112
96,1678837059062,30,-50,20,2,1.179,8.0,3.902,6.0,2.626,12.0,3.76,5.0,1.626,7.0,2.989
97,1678836268008,1,-80,-20,2,3.916,,,,,,,,,,
97,1678836275791,2,-50,-80,1,2.198,,,,,,,,,,
97,1678836286073,3,-50,-20,1,1.924,,,,,,,,,,
97,1678836311656,4,-80,-50,2,2.082,3.0,3.979,8.0,1.88,6.0,3.115,7.0,1.737,6.0,5.097
97,1678836334254,5,-20,-50,2,2.04,6.0,3.046,7.0,3.213,8.0,2.959,7.0,1.709,3.0,2.964
97,1678836355370,6,-20,-80,1,1.248,7.0,3.082,6.0,2.503,4.0,2.478,6.0,2.862,7.0,2.289
97,1678836364486,7,80,-80,1,1.657,,,,,,,,,,
97,1678836372036,8,80,-50,1,1.436,,,,,,,,,,
97,1678836380435,9,-20,50,2,1.5,,,,,,,,,,
97,1678836387751,10,-20,80,2,1.291,,,,,,,,,,
97,1678836396317,11,50,-80,1,1.328,,,,,,,,,,
97,1678836405833,12,-80,20,2,1.449,,,,,,,,,,
97,1678836414383,13,-50,50,2,1.19,,,,,,,,,,
97,1678836422983,14,-20,20,2,1.326,,,,,,,,,,
97,1678836432583,15,-50,20,2,2.126,,,,,,,,,,
97,1678836453448,16,20,-20,1,1.106,13.0,3.115,7.0,1.895,6.0,2.802,7.0,1.753,7.0,2.934
97,1678836475864,17,-50,80,2,1.181,6.0,2.791,7.0,2.951,19.0,2.838,9.0,1.574,10.0,3.292
97,1678836498313,18,-80,50,2,0.93,2.0,2.747,7.0,3.558,15.0,2.622,8.0,1.923,10.0,2.824
97,1678836520845,19,20,-80,1,1.26,12.0,3.377,7.0,2.503,4.0,2.322,5.0,1.812,10.0,3.122
97,1678836542128,20,80,-20,1,1.017,18.0,3.884,7.0,2.488,5.0,2.354,8.0,2.91,10.0,2.913
97,1678836565292,21,20,-50,1,1.124,12.0,2.514,7.0,3.175,6.0,2.856,6.0,2.581,10.0,3.088
97,1678836586975,22,-80,80,2,1.005,3.0,2.824,8.0,2.409,19.0,2.878,8.0,2.538,10.0,2.648
97,1678836610974,23,50,-50,1,1.553,15.0,3.205,8.0,2.553,6.0,2.248,8.0,2.436,10.0,2.935
97,1678836629373,24,50,-20,1,1.05,16.0,2.621,8.0,1.791,3.0,2.297,6.0,2.407,10.0,3.352
97,1678836639239,25,50,80,2,1.743,,,,,,,,,,
97,1678836646988,26,50,20,1,1.514,,,,,,,,,,
97,1678836656021,27,80,20,1,1.214,,,,,,,,,,
97,1678836678853,28,20,50,2,0.946,12.0,3.494,7.0,3.048,16.0,2.997,7.0,2.222,10.0,2.789
97,1678836702535,29,80,50,1,1.048,18.0,2.729,7.0,2.696,14.0,3.589,8.0,3.074,10.0,2.265
97,1678836725317,30,20,80,2,1.494,12.0,3.131,7.0,2.381,18.0,3.006,7.0,2.148,10.0,2.955
98,1678837292349,1,-50,20,2,14.333,,,,,,,,,,
98,1678837301149,2,-80,80,2,2.945,,,,,,,,,,
98,1678837313116,3,-20,50,2,4.014,,,,,,,,,,
98,1678837323233,4,-80,20,2,3.409,,,,,,,,,,
98,1678837349466,5,-80,50,2,20.607,,,,,,,,,,
98,1678837356616,6,20,-20,1,1.509,,,,,,,,,,
98,1678837372350,7,50,-50,1,8.304,,,,,,,,,,
98,1678837379866,8,-50,80,2,1.166,,,,,,,,,,
98,1678837388066,9,80,-20,1,1.24,,,,,,,,,,
98,1678837425717,10,-50,50,2,3.013,5.0,5.899,6.0,2.205,14.0,5.561,7.0,1.542,9.0,11.626
98,1678837448533,11,-20,80,2,2.142,8.0,2.904,8.0,1.854,18.0,2.807,7.0,1.901,10.0,2.481
98,1678837476216,12,80,-50,1,2.343,18.0,3.094,8.0,1.679,4.0,6.934,4.0,1.303,10.0,2.777
98,1678837501417,13,80,-80,1,1.038,19.0,4.139,6.0,1.679,2.0,5.631,7.0,2.424,9.0,2.177
98,1678837523833,14,20,-50,1,0.75,11.0,3.789,7.0,2.544,5.0,2.862,8.0,2.239,9.0,2.54
98,1678837546100,15,20,-80,1,2.495,12.0,2.299,7.0,1.36,1.0,3.549,6.0,1.727,9.0,1.947
98,1678837568884,16,50,-80,1,1.203,15.0,3.734,6.0,3.535,2.0,2.958,8.0,1.655,9.0,2.107
98,1678837599951,17,50,-20,1,1.462,15.0,6.325,7.0,5.118,7.0,5.91,7.0,1.991,9.0,2.243
98,1678837618868,18,-20,20,2,1.118,8.0,2.151,6.0,1.319,12.0,1.767,7.0,2.567,9.0,2.108
98,1678837629468,19,50,20,1,3.98,,,,,,,,,,
98,1678837636034,20,50,80,2,1.823,,,,,,,,,,
98,1678837644301,21,20,80,2,1.421,,,,,,,,,,
98,1678837663251,22,80,20,1,0.857,18.0,2.742,7.0,1.198,12.0,2.245,7.0,2.35,9.0,2.195
98,1678837686335,23,20,50,2,1.078,13.0,2.213,7.0,2.253,16.0,3.066,6.0,1.486,9.0,4.122
98,1678837703218,24,80,50,1,1.509,19.0,2.113,7.0,1.878,15.0,2.502,7.0,1.583,10.0,2.426
98,1678837714651,25,-20,-50,1,2.589,,,,,,,,,,
98,1678837722435,26,-20,-80,1,1.523,,,,,,,,,,
98,1678837731968,27,-80,-50,2,1.892,,,,,,,,,,
98,1678837753101,28,-50,-20,2,1.262,4.0,3.221,5.0,1.383,8.0,2.086,7.0,1.838,8.0,4.05
98,1678837775384,29,-50,-80,1,1.086,5.0,3.76,6.0,1.143,1.0,2.494,4.0,2.479,7.0,3.635
98,1678837795034,30,-80,-20,2,1.567,2.0,2.593,6.0,1.447,7.0,2.319,7.0,1.526,9.0,2.244
99,1678837319309,1,80,50,1,4.434,,,,,,,,,,
99,1678837332008,2,50,20,1,7.283,,,,,,,,,,
99,1678837341989,3,80,20,1,1.971,,,,,,,,,,
99,1678837368568,4,20,80,2,2.472,12.0,3.608,8.0,3.101,19.0,4.538,6.0,2.453,8.0,2.683
99,1678837393047,5,20,50,2,1.843,12.0,5.225,7.0,1.911,16.0,3.589,6.0,2.266,6.0,3.04
99,1678837414777,6,50,80,2,1.342,15.0,2.743,6.0,3.45,18.0,3.143,7.0,1.969,6.0,2.497
99,1678837427375,7,-20,-50,1,5.217,,,,,,,,,,
99,1678837437174,8,-80,-20,2,2.39,,,,,,,,,,
99,1678837446722,9,-80,-50,2,2.405,,,,,,,,,,
99,1678837473134,10,-20,-80,1,1.401,8.0,4.668,8.0,1.957,2.0,4.154,8.0,3.243,7.0,3.492
99,1678837503463,11,-50,-80,1,3.487,4.0,4.612,8.0,2.45,2.0,4.106,7.0,3.953,8.0,3.073
99,1678837538457,12,-50,-20,2,1.101,4.0,6.83,6.0,4.307,8.0,3.27,8.0,1.826,7.0,8.08
99,1678837548972,13,20,-20,1,3.313,,,,,,,,,,
99,1678837558721,14,-80,50,2,3.228,,,,,,,,,,
99,1678837568485,15,-80,80,2,2.263,,,,,,,,,,
99,1678837577501,16,-50,80,2,2.755,,,,,,,,,,
99,1678837591199,17,50,-20,2,5.733,,,,,,,,,,
99,1678837600630,18,20,-50,1,2.615,,,,,,,,,,
99,1678837609312,19,-50,50,2,1.815,,,,,,,,,,
99,1678837616661,20,-80,20,2,2.674,,,,,,,,,,
99,1678837626144,21,-20,80,2,2.061,,,,,,,,,,
99,1678837656572,22,50,-50,1,2.877,16.0,6.11,8.0,1.941,4.0,6.513,6.0,1.811,8.0,3.768
99,1678837681851,23,80,-50,1,1.361,19.0,3.478,8.0,3.103,4.0,2.493,7.0,2.713,9.0,3.462
99,1678837708113,24,80,-80,1,2.01,19.0,3.459,9.0,2.332,0.0,5.606,8.0,3.937,8.0,3.818
99,1678837736893,25,-20,20,2,1.62,8.0,4.292,6.0,2.683,12.0,3.617,7.0,2.134,8.0,4.296
99,1678837764354,26,50,-80,1,1.959,16.0,3.455,7.0,3.229,2.0,3.279,8.0,4.125,9.0,3.818
99,1678837792583,27,20,-80,1,1.549,12.0,3.591,7.0,3.657,0.0,4.499,8.0,2.817,8.0,3.609
99,1678837821196,28,-20,50,2,1.261,8.0,7.072,8.0,2.892,16.0,2.571,8.0,3.636,7.0,2.335
99,1678837858473,29,80,-20,1,1.004,19.0,3.004,7.0,10.676,8.0,8.95,8.0,3.09,9.0,2.725
99,1678837880619,30,-50,20,2,1.19,3.0,4.003,7.0,2.424,12.0,2.168,7.0,1.805,7.0,2.429
